timestamp,temp_h,temp_p,humidity,pressure,pitch,roll,yaw,mag_x,mag_y,mag_z,accel_x,accel_y,accel_z,gyro_x,gyro_y,gyro_z
14/04/2019 21:31,22.19600677,0,52.95829391,0,28.46793647,11.62272971,139.4095705,-8.436763763,-3.368710995,5.539776325,0.020607902,0.010925665,0.97040087,-0.002585261,0.003335478,-0.010563968
14/04/2019 21:31,22.1235218,21.50625038,52.98151398,1028.212402,26.22394271,10.50517672,139.6542825,-16.77122688,-6.347267628,11.89048576,0.018910781,0.009954495,0.979417682,0.000242151,0.002585883,-0.009886462
14/04/2019 21:31,22.1235218,21.5,52.95497894,1028.215332,24.29155754,9.691272597,140.4912539,-20.22524071,-7.778191566,14.01574039,0.024002146,0.008740533,0.98063612,-0.002717327,0.003868332,-0.011925777
14/04/2019 21:31,22.19600677,21.50416756,53.06445313,1028.218262,22.46698178,9.027620682,141.343921,-21.87159157,-8.00834465,14.7019453,0.014546755,0.009226118,0.990384042,-0.000460913,0.004214602,-0.007964216
14/04/2019 21:31,22.17788506,21.51250076,53.2701416,1028.220459,20.67546927,8.389493183,142.3011447,-22.41242218,-8.266619682,14.964921,0.016486323,0.011411251,0.989652932,-0.000931285,0.002805265,-0.008437255
14/04/2019 21:31,22.23225021,21.52499962,53.35639954,1028.2229,19.2098746,7.823918515,143.1119155,-22.85087967,-8.093831062,15.32947636,0.016486323,0.008740533,0.987215936,-0.002947018,0.002341008,-0.007048134
14/04/2019 21:31,22.23225021,21.52291679,53.14739227,1028.224854,17.7211751,7.443514544,143.9254047,-23.24056244,-8.904981613,15.51593304,0.016971214,0.008012155,0.989652932,0.001202216,0.001906682,-0.009323381
14/04/2019 21:31,22.25037003,21.53750038,53.51232147,1028.23877,16.40077147,7.001683694,144.719865,-23.46939468,-9.045153618,15.96645832,0.016971214,0.00946891,0.989165485,0.000277357,0.002087125,-0.004080368
14/04/2019 21:31,22.3228569,21.54999924,53.49905396,1028.208252,15.22345518,6.532116726,145.4204784,-23.20493317,-8.851948738,16.4781456,0.016243877,0.008012155,0.987947047,-0.000982057,0.000123785,-0.005000217
14/04/2019 21:31,22.3228569,21.55833244,53.30331802,1028.19043,14.12892419,6.08576301,145.9883677,-23.07542992,-8.699287415,16.62060547,0.017940998,0.007040984,0.992577255,0.000484059,0.001537931,-0.006375751
14/04/2019 21:31,22.34097672,21.57500076,53.44265366,1028.191406,13.04304023,5.584658498,146.4722183,-23.25737,-8.91913414,17.07022667,0.017213661,0.009711703,0.990871429,0.0002115,0.000796229,-0.004516961
14/04/2019 21:31,22.26849174,21.58124924,53.2170639,1028.189209,12.06278514,5.344377566,147.0626335,-23.1751709,-9.160513878,16.82287598,0.014061864,0.007283777,0.992089868,0.001139663,0.001294498,0.000258474
14/04/2019 21:31,22.25037003,21.59375,53.34976196,1028.215088,11.13120625,4.888935429,147.5728486,-23.23984718,-9.066984177,16.41987991,0.016728768,0.010197288,0.989652932,-4.19E-05,0.00216538,-0.001967903
14/04/2019 21:31,22.3228569,21.60833359,53.14075851,1028.226074,10.20118122,4.561354007,148.2229187,-22.34605217,-9.15566349,16.1716938,0.015274093,0.008740533,0.990384042,-0.00181147,0.00088171,-0.003586367
14/04/2019 21:31,22.25037003,21.61874962,53.26682281,1028.173096,9.265054279,4.322420329,148.6936007,-22.78754616,-8.89558506,16.15274048,0.016001431,0.00849774,0.987703323,-0.000299986,0.002018801,-0.002976036
14/04/2019 21:31,22.3228569,21.62083244,53.1606636,1028.224854,8.561540526,4.150069897,149.3879714,-23.09945488,-8.760154724,16.2770195,0.017456107,0.010197288,0.990140319,-0.002066306,0.00041483,-0.004016215
14/04/2019 21:31,22.35909843,21.62708282,53.087677,1028.218994,7.835813289,3.833397995,149.7555995,-23.03992462,-8.954298973,16.21773148,0.017940998,0.008012155,0.98745966,-0.001119455,0.000638316,-0.004354132
14/04/2019 21:31,22.34097672,21.63750076,52.91848373,1028.24292,7.182608148,3.764149268,150.2601729,-22.98598289,-9.082712173,16.38055801,0.016001431,0.012139629,0.987703323,-0.000824086,0.001497372,-0.002121815
14/04/2019 21:31,22.3228569,21.64999962,52.80236816,1028.229004,6.631669295,3.527728673,150.7664812,-22.90883636,-8.971278191,15.69409943,0.016486323,0.00946891,0.991846144,4.60E-05,0.002280012,-0.001677722
14/04/2019 21:31,22.3228569,21.64791679,53.04454803,1028.235596,6.335348795,3.066475753,151.3760892,-22.7491436,-8.875700951,15.3283987,0.02133524,0.007040984,0.988678098,-0.000635397,0.002722063,-0.005430506
14/04/2019 21:31,22.3228569,21.65416718,52.84549713,1028.230225,1.537423075,2.665076635,151.556133,-22.58487701,-8.853207588,15.17238903,0.017940998,0.011411251,0.986728549,-0.001745901,0.004043783,-0.005808782
14/04/2019 21:31,22.30473518,21.66250038,52.72938538,1028.207031,1.631472219,2.314182496,152.1222737,-22.75900078,-8.668409348,15.93473816,0.017698551,0.006798192,0.989409208,-0.003974293,0.00696761,-0.002427442
14/04/2019 21:31,22.4315834,21.66666603,52.90189362,1028.185303,6.159783051,2.092083955,152.6669676,-22.93720818,-8.670257568,15.99238014,0.017698551,0.012139629,0.991358757,0.002723491,-0.00061943,-0.003755182
14/04/2019 21:32,22.4315834,21.68124962,52.82891083,1028.238525,5.77901708,2.006769342,152.9883144,-23.02193451,-8.835353851,16.21789551,0.018183446,0.008983325,0.989652932,0.000906678,0.000754362,-0.002046976
14/04/2019 21:32,22.44970512,21.68333244,52.49383926,1028.232178,5.276224657,1.898116187,153.2151586,-23.03748131,-8.863733292,16.14148521,0.016971214,0.012139629,0.988434374,0.000306197,-0.000781694,-0.000697637
14/04/2019 21:32,22.39534187,21.6875,52.93175507,1028.239014,4.689937441,1.685286425,153.5678969,-23.37923241,-9.066235542,16.42679024,0.018183446,0.009954495,0.990140319,0.000700653,-0.000150124,0.003597626
14/04/2019 21:32,22.35909843,21.69166756,52.64976501,1028.205566,4.277462317,1.470172285,153.8735752,-23.21078491,-9.171215057,16.44809914,0.015031647,0.00849774,0.989652932,0.002780287,-0.000730451,-0.001510551
14/04/2019 21:32,22.4315834,21.70208359,52.76587677,1028.208008,3.792104379,1.440539403,154.0345628,-23.10014343,-9.787362099,15.81356525,0.017213661,0.010197288,0.988921821,-0.000295525,0.001679367,-0.002812847
14/04/2019 21:32,22.37722015,21.69791603,53.23033142,1028.226318,3.341179985,1.497569135,154.4069857,-22.76124191,-8.913856506,15.73331165,0.016243877,0.00849774,0.991115034,0.000290463,0.000131292,-0.002171366
14/04/2019 21:32,22.4315834,21.69583321,52.82227325,1028.236572,3.089395947,1.451558739,154.776335,-22.76125145,-8.921238899,16.45968819,0.017940998,0.009954495,0.990384042,-0.000349365,0.000383874,-0.001252202
14/04/2019 21:32,22.26849174,21.71458244,52.86872101,1028.231445,2.860317165,1.446032476,155.099922,-22.83942413,-8.788779259,16.77211761,0.016243877,0.008740533,0.989896595,0.00083058,-0.000291176,0.000887565
14/04/2019 21:32,22.39534187,21.72500038,52.84549713,1028.229004,2.605382489,1.463516266,155.2582185,-23.19358063,-8.896850586,16.52897263,0.015516539,0.009954495,0.989409208,-0.000459461,0.001825463,-0.000327479
14/04/2019 21:32,22.50406837,21.73125076,52.91184998,1028.212891,2.296736913,1.526789965,155.3450302,-22.99287033,-8.440205574,16.29879379,0.015031647,0.008983325,0.988434374,-0.001114226,-0.000277188,0.00149915
14/04/2019 21:32,22.50406837,21.72291756,52.71942902,1028.224365,2.130904402,1.460264456,155.636529,-22.70292854,-8.467468262,16.63139534,0.016243877,0.00849774,0.989652932,0.001616839,-0.000578327,0.002715964
14/04/2019 21:32,22.4315834,21.73749924,52.81232452,1028.22876,1.873263477,1.348776132,155.8702034,-22.63341522,-8.197977066,16.69006348,0.016971214,0.009226118,0.987703323,-0.001358147,0.001246575,-0.002654066
14/04/2019 21:32,22.4315834,21.73958397,52.74597168,1028.22583,1.602227483,1.299035493,156.244771,-23.25795174,-8.348114967,16.17866707,0.016243877,0.009711703,0.98745966,-0.000752971,-0.002329467,-0.001412634
14/04/2019 21:32,22.3228569,21.75,52.51042557,1028.204834,1.619463039,1.195365921,156.317977,-23.17388344,-8.802442551,16.12591934,0.016486323,0.010197288,0.988190711,-5.31E-05,4.33E-05,-0.001295893
14/04/2019 21:32,22.44970512,21.75,52.56350708,1028.234863,1.405334901,1.211462649,156.5043182,-23.17127228,-8.941505432,16.26460648,0.016243877,0.010197288,0.990871429,0.000536647,0.000670805,-0.003282341
14/04/2019 21:32,22.41346169,21.77291679,52.48720551,1028.224854,1.276621266,1.108725718,156.681384,-22.96922302,-9.11095047,16.1230545,0.016728768,0.010682873,0.989652932,-0.000360066,-0.000254218,0.000347916
14/04/2019 21:32,22.39534187,21.75833321,51.32938385,1028.227783,1.127734882,1.151730083,156.7003583,-23.03521538,-8.651959419,16.17530632,0.016728768,0.009711703,0.990384042,-0.000391396,-2.22E-05,0.001655089
14/04/2019 21:32,22.39534187,21.78541756,52.77914429,1028.231689,0.955105052,1.013513522,156.7779219,-23.0267086,-8.56959343,15.87409687,0.015274093,0.00946891,0.989896595,0.00175057,-0.001207062,-0.000717347
14/04/2019 21:32,22.44970512,21.79166603,52.12559509,1028.202881,0.914557527,0.92381777,156.9531709,-22.89390755,-8.605628967,16.356987,0.017213661,0.007769363,0.990871429,0.00051857,0.000534901,0.001407042
14/04/2019 21:32,22.4315834,21.80624962,52.31800842,1028.220459,0.754243062,0.959705932,156.9869394,-22.76061249,-8.862745285,15.83568478,0.016001431,0.009954495,0.989652932,0.000464641,0.001124828,0.00178384
14/04/2019 21:32,22.55843353,21.82083321,52.21516418,1028.243164,0.652435998,0.959922577,157.1224776,-22.8237896,-8.854756355,15.90836143,0.015516539,0.008983325,0.990627706,0.001339961,0.001066153,-0.002723103
14/04/2019 21:32,22.41346169,21.82500076,52.67298508,1028.250244,0.522423987,1.027786696,157.2902817,-22.82331085,-8.617400169,15.79790115,0.016001431,0.008983325,0.987703323,0.001878295,0.001681397,0.000379574
14/04/2019 21:32,22.52219009,21.83958244,53.14407349,1028.229004,0.466209023,1.067256225,157.456146,-22.64791298,-8.842658043,15.88891029,0.016728768,0.008254947,0.987215936,0.002705611,-0.000776372,0.003362985
14/04/2019 21:32,22.64904022,21.85000038,52.20189667,1028.244141,0.33783407,1.062168267,157.3456336,-22.6338768,-8.761189461,15.59453583,0.016001431,0.00849774,0.988434374,-0.001526634,-0.00081565,-0.002005121
14/04/2019 21:32,22.55843353,21.86458397,52.42085266,1028.259033,0.088667108,1.069587027,157.5351986,-22.47418404,-8.790996552,15.87435246,0.016971214,0.010197288,0.989896595,0.002398174,-0.000743004,-0.002022313
14/04/2019 21:32,22.52219009,21.88541603,52.67630386,1028.212891,0.07111751,1.031765495,157.557506,-22.61408615,-8.655298233,15.5477438,0.016001431,0.009226118,0.988190711,-0.000317806,-0.001083758,-0.001699217
14/04/2019 21:32,22.70340347,21.89999962,52.31800842,1028.233398,359.9661166,0.902997005,157.6824575,-22.274189,-8.826743126,15.61195087,0.014789201,0.008740533,0.990384042,0.00092374,-0.00105721,-0.003028092
14/04/2019 21:32,22.57655334,21.91458321,52.33791351,1028.241455,359.9039553,0.928369451,157.6031454,-22.94838715,-8.923178673,15.51413822,0.016486323,0.01044008,0.990384042,0.003590947,-0.00102248,-0.001468575
14/04/2019 21:32,22.61279678,21.92499924,52.39431,1028.242188,359.7923025,0.925338127,157.7750612,-23.19326019,-8.745724678,15.99007607,0.016001431,0.008740533,0.990384042,0.000446182,-5.94E-05,0.000265045
14/04/2019 21:32,22.61279678,21.9375,52.53033447,1028.238525,359.677788,1.023393283,158.0095416,-22.74814034,-8.821304321,16.24170494,0.014061864,0.012868007,0.987947047,0.000587361,0.000158942,-9.65E-05
14/04/2019 21:32,22.61279678,21.94791603,52.11231995,1028.260498,359.8336132,0.955206224,158.0802887,-22.6391964,-8.89941597,16.06391907,0.020123012,-0.001929807,0.990384042,-0.006554193,0.010740349,0.003829671
14/04/2019 21:32,22.68528175,21.95624924,52.50047302,1028.259766,359.7105585,1.063383187,158.2920246,-22.69701958,-8.781208038,15.72188473,0.018668335,0.005098644,0.989165485,0.000715801,-0.000188782,0.000975527
14/04/2019 21:32,22.66716003,21.96458244,52.30805588,1028.263916,359.7622135,1.028910796,158.319277,-21.86915588,-8.702356339,15.76465607,0.016728768,0.010925665,0.986484826,-0.002028764,0.001290768,-0.001146527
14/04/2019 21:32,22.52219009,21.98125076,53.17061615,1028.298096,359.797817,1.048378756,158.449597,-22.0900898,-8.656195641,16.24349785,0.016486323,0.00946891,0.991358757,2.26E-06,0.000920827,5.38E-07
14/04/2019 21:32,22.70340347,21.99791718,52.81895447,1028.280518,359.6328472,1.131443568,158.5602051,-22.82421112,-8.847764969,15.6573143,0.016243877,0.009711703,0.989652932,-0.000297433,-0.001453103,0.001918055
14/04/2019 21:32,22.77588844,22.01041603,52.51705933,1028.270264,359.565012,1.118863533,158.8004365,-22.497015,-8.713562012,15.72868156,0.014304309,0.00946891,0.989409208,0.001128932,0.001300092,-0.001745068
14/04/2019 21:32,22.70340347,22.01666641,52.25829315,1028.282227,359.4810829,1.065046979,158.6222779,-22.49225044,-8.848672867,15.30670643,0.016001431,0.008740533,0.99160248,0.001739979,-0.000187372,-0.001055477
14/04/2019 21:32,22.72152519,22.02499962,52.29146957,1028.255127,359.537528,1.12738889,158.9154296,-22.68889999,-8.672062874,15.53976154,0.016001431,0.008012155,0.989165485,0.001646193,9.56E-05,-0.002640285
14/04/2019 21:32,22.86649513,22.03750038,51.8303299,1028.259277,359.5243325,0.992096716,158.9498674,-22.64798164,-8.939135551,15.58211613,0.016486323,0.009226118,0.990871429,0.002848241,-0.001106566,-0.002655452
14/04/2019 21:32,22.66716003,22.05624962,52.13554382,1028.29541,359.4182299,0.89742165,158.998635,-22.51054955,-8.905642509,15.37974834,0.014304309,0.011168458,0.989652932,0.00070294,0.000397572,-0.002580142
14/04/2019 21:32,22.70340347,22.06666756,52.46398163,1028.288574,359.369899,1.0653474,158.8255443,-21.868433,-8.846201897,15.4722147,0.016728768,0.011168458,0.989652932,0.000983655,0.001292007,-0.003651994
14/04/2019 21:32,22.79401016,22.08333397,52.3412323,1028.285645,359.3713788,0.961089472,158.716193,-22.49888229,-8.599537849,15.82266998,0.016243877,0.00946891,0.990627706,-0.000853345,6.58E-05,-0.001494378
14/04/2019 21:32,22.83025169,22.10208321,51.8104248,1028.274902,359.3872272,1.065260956,158.7816808,-22.73266411,-8.560824394,15.84244442,0.016243877,0.010197288,0.988921821,-0.000876309,0.000417591,-0.002006104
14/04/2019 21:32,22.88461685,22.10833359,52.44739532,1028.302979,359.3832104,1.08240441,158.5556835,-22.82291222,-8.765981674,16.56639481,0.016971214,0.010925665,0.990384042,0.000272729,-0.000800886,-0.003056363
14/04/2019 21:32,22.81213188,22.11458397,52.08909988,1028.264893,359.4173688,1.0323959,158.5292644,-22.95557785,-8.86175251,15.86851597,0.014789201,0.009954495,0.990384042,0.000595443,-0.001963971,0.001429021
14/04/2019 21:32,22.81213188,22.13541603,51.88673019,1028.28418,359.3429104,1.137987636,158.4878051,-23.082304,-8.777694702,15.89677811,0.015031647,0.00946891,0.989896595,-1.87E-05,-0.000663049,-0.002814501
14/04/2019 21:32,22.90273666,22.14791679,52.0857811,1028.286133,359.3405752,1.173131627,158.6508964,-22.91943169,-8.647175789,15.71254539,0.015274093,0.01044008,0.988921821,0.000884004,-0.001244831,-0.000745678
14/04/2019 21:32,22.86649513,22.16250038,52.24834061,1028.260254,359.2972797,1.016992863,158.6720563,-22.80560684,-8.66748333,15.58051968,0.016243877,0.009954495,0.990871429,0.001746137,-0.002058747,0.005840564
14/04/2019 21:32,22.79401016,22.16458321,52.07914734,1028.26123,359.1438541,0.993699143,158.7019179,-22.72285652,-8.297076225,15.16367531,0.012849634,0.01044008,0.986728549,0.000519723,0.001354857,-0.000972068
14/04/2019 21:32,22.90273666,22.18333244,51.90663528,1028.247314,359.1447316,0.937315824,158.8222248,-22.80255699,-8.498684883,15.14740372,0.011394958,0.012139629,0.99160248,0.002317483,0.001030005,0.000804713
14/04/2019 21:32,22.9389801,22.18124962,51.68767548,1028.254395,359.1184004,0.928003395,158.8421963,-22.89039612,-8.503489494,15.41055489,0.017698551,0.009711703,0.989652932,-0.001353825,0.00071644,0.001111222
14/04/2019 21:32,22.95710182,22.19166756,51.90000153,1028.200928,359.0627672,0.836871276,159.0451349,-22.90856361,-8.610489845,15.87948132,0.016243877,0.007769363,0.990384042,0.003170025,0.000458675,-0.000687461
14/04/2019 21:32,22.92085838,22.21458244,52.05260468,1028.283691,359.0341362,0.772941346,159.0133472,-23.21663284,-8.91529274,15.8625288,0.016243877,0.008983325,0.987947047,-0.000167711,-0.001078356,-6.15E-05
14/04/2019 21:33,22.95710182,22.21666718,51.84028625,1028.253906,359.1139835,0.886379849,158.9817371,-22.9445858,-9.077549934,15.45809078,0.016001431,0.008254947,0.988434374,0.000369607,0.000149536,-0.001823662
14/04/2019 21:33,23.02958679,22.23125076,51.82369614,1028.233154,359.0850898,0.851521338,158.7399894,-22.74277306,-9.175338745,15.28886223,0.016728768,0.010682873,0.990627706,-0.000235539,0.000159756,0.001258248
14/04/2019 21:33,23.02958679,22.23333359,51.83364868,1028.260986,359.0386877,0.728337276,158.6939812,-22.66824341,-8.779337883,15.29977226,0.016486323,0.01044008,0.989652932,0.000975631,0.000439323,-0.00085634
14/04/2019 21:33,23.01146507,22.25208282,51.88009644,1028.235107,358.9635121,0.724573361,158.6335067,-22.91120529,-8.903417587,16.46152115,0.014546755,0.010682873,0.992820978,0.000350952,-0.001062038,-0.00114071
14/04/2019 21:33,22.97522354,22.26458359,51.56824493,1028.257813,359.0367914,0.786459357,158.6819874,-22.69092178,-8.760476112,16.21617889,0.015031647,0.010682873,0.987215936,-0.000282327,-8.52E-05,0.003009228
14/04/2019 21:33,22.95710182,22.27499962,51.80710602,1028.270752,358.9933988,0.80954561,158.6402549,-22.70557785,-8.597845078,15.51101971,0.016243877,0.008740533,0.992089868,0.001528557,-0.000680563,0.004462268
14/04/2019 21:33,23.12019348,22.28333282,51.7938385,1028.264893,358.9929934,0.794699393,158.6729852,-22.68344307,-8.340408325,15.50116825,0.015274093,0.011168458,0.989652932,-0.000934754,-8.04E-05,0.002545781
14/04/2019 21:33,23.04770851,22.29583359,51.6478653,1028.277588,359.0494093,0.918997471,158.7463824,-22.92254639,-8.46199894,15.71138668,0.017940998,0.010197288,0.988434374,-8.16E-05,0.000500697,0.002192238
14/04/2019 21:33,22.99334335,22.31666756,51.71089935,1028.275146,359.0747985,0.84826035,159.1677778,-23.01380157,-8.346655846,15.85167217,0.016728768,0.010197288,0.99160248,0.001109725,-0.001588965,0.000263305
14/04/2019 21:33,23.06583023,22.33124924,51.81374359,1028.288086,358.9980609,0.810536094,159.1364682,-23.07913399,-8.129012108,15.98726463,0.016971214,0.00849774,0.989896595,-0.001306029,-0.000913899,0.001397036
14/04/2019 21:33,23.1383152,22.33749962,51.87677765,1028.234619,358.945575,0.748736116,159.1762882,-22.73064232,-8.064974785,16.20298195,0.017213661,0.010197288,0.988678098,-0.000644801,-0.000874096,0.00041878
14/04/2019 21:33,23.08395004,22.34375,51.45213318,1028.235352,358.9349558,0.646215136,159.2232799,-22.60378838,-8.262871742,15.95083809,0.015758984,0.009711703,0.989652932,-0.001199014,-0.002643067,0.002788343
14/04/2019 21:33,23.1383152,22.35416603,51.66777039,1028.245361,358.8952281,0.565124516,159.3730386,-22.63523483,-8.604137421,15.42080021,0.016971214,0.010682873,0.988921821,2.58E-05,0.001044282,0.000813611
14/04/2019 21:33,23.1383152,22.36666679,50.22796249,1028.217773,358.8587934,0.569629452,159.2967181,-22.52025414,-9.263079643,15.43835354,0.017213661,0.009226118,0.988921821,0.000614667,-0.001347248,-0.000211108
14/04/2019 21:33,23.1383152,22.37291718,51.58151627,1028.219238,358.8255421,0.505075467,159.0471293,-22.75372314,-9.341905594,15.64997673,0.016001431,0.00946891,0.986728549,0.000618787,0.000152731,-0.002184715
14/04/2019 21:33,23.2470417,22.38541603,50.17488098,1028.228027,358.750983,0.631868217,159.0004108,-22.66417694,-8.769399643,15.61366463,0.015274093,0.00946891,0.988678098,0.000313248,0.000496933,0.002969032
14/04/2019 21:33,23.12019348,22.40208244,50.5530777,1028.244141,358.8540619,0.64151682,158.9909578,-22.41522789,-8.943732262,15.30778313,0.017698551,0.011411251,0.988921821,-0.001169,0.000174658,0.000165841
14/04/2019 21:33,23.17455673,22.41250038,51.40237045,1028.244385,358.8476182,0.518284413,158.9951106,-22.3175087,-8.630440712,15.43389988,0.015274093,0.008740533,0.995745361,-0.002609854,0.000492776,-0.00080565
14/04/2019 21:33,23.17455673,22.41666603,50.58625793,1028.228516,358.9351845,0.487111536,159.1831047,-22.9820385,-8.813831329,14.90875626,0.016486323,0.011411251,0.990140319,0.001336342,-0.001055743,0.001806865
14/04/2019 21:33,23.17455673,22.42916679,51.58151627,1028.2229,358.938598,0.541237263,159.1303074,-22.63141823,-8.674349785,15.11842346,0.015758984,0.009954495,0.989896595,-0.000513181,0.000770678,0.005055472
14/04/2019 21:33,23.21080017,22.42708397,51.68104172,1028.218506,358.93907,0.57754943,159.2929068,-22.28962517,-8.390684128,15.3551302,0.016243877,0.009954495,0.986484826,0.000361806,0.000183989,0.000989428
14/04/2019 21:33,23.31952667,22.44375038,51.63459778,1028.210693,358.8825554,0.558612838,159.4398106,-22.89128685,-8.457060814,15.74707317,0.016001431,0.00946891,0.988190711,-0.000267468,0.000221472,-0.00054135
14/04/2019 21:33,23.10207176,22.45624924,51.27962112,1028.23999,358.9162709,0.614119597,159.321539,-22.43068314,-8.489251137,15.57759857,0.014546755,0.008983325,0.988678098,-0.001175651,-0.000678718,0.000154458
14/04/2019 21:33,23.22891998,22.46666718,51.412323,1028.253662,358.9197168,0.483601672,159.4368599,-22.83363152,-9.483180046,15.41202736,0.016971214,0.01044008,0.987215936,0.000682855,0.000282064,0.00088062
14/04/2019 21:33,23.21080017,22.48958397,51.29620743,1028.240723,358.904357,0.444969269,159.2807081,-22.81735992,-9.338864326,15.43701744,0.016486323,0.009711703,0.989652932,-0.000193579,-0.001227826,0.001453353
14/04/2019 21:33,23.30140686,22.49166679,51.19004822,1028.218506,358.7957658,0.447033987,158.9898513,-22.73884392,-9.152736664,15.05009842,0.016486323,0.010197288,0.989896595,0.001565984,0.000349028,0.000295596
14/04/2019 21:33,23.35577011,22.50208282,51.26303101,1028.207764,358.8367418,0.431569478,158.8127172,-22.7051754,-8.752487183,14.94442558,0.016001431,0.008983325,0.990627706,0.000646546,-0.001515853,0.000105118
14/04/2019 21:33,23.31952667,22.5,51.40237045,1028.250977,358.7493881,0.319035895,159.0203277,-22.88767242,-8.769021988,14.61732292,0.017213661,0.009954495,0.989652932,0.001234042,0.001245746,-0.000535427
14/04/2019 21:33,23.26516342,22.52083397,50.65924072,1028.242432,358.7044698,0.341995496,158.9660823,-22.88959122,-8.987131119,14.774786,0.016971214,0.011168458,0.990384042,-0.000879046,6.68E-05,-0.000219963
14/04/2019 21:33,23.26516342,22.51874924,51.14691925,1028.249756,358.7503233,0.356749185,159.1247339,-22.69701576,-8.802211761,15.55415916,0.017213661,0.009954495,0.988190711,0.001811964,0.00158382,0.002017856
14/04/2019 21:33,23.30140686,22.53333282,51.07393265,1028.237061,358.7399887,0.443328849,159.1793891,-22.44889069,-9.31470871,15.39865685,0.015758984,0.009711703,0.989652932,-0.001239737,-0.000562795,0.000259165
14/04/2019 21:33,23.39201355,22.53958321,51.12701416,1028.238281,358.6818196,0.403849769,158.8605559,-22.74082947,-9.221188545,15.38169861,0.015516539,0.009954495,0.988190711,0.001529079,-0.000200788,0.002502907
14/04/2019 21:33,23.35577011,22.55833244,50.96113586,1028.233154,358.6805197,0.366055264,158.7340881,-22.45393181,-8.945055962,15.01170158,0.017213661,0.009711703,0.991115034,0.000912024,0.00105344,0.001951292
14/04/2019 21:33,23.28328514,22.55624962,51.51184845,1028.250977,358.6611328,0.346865768,158.7863527,-22.34329033,-8.380204201,14.7885704,0.017456107,0.009954495,0.993308365,0.000606531,-0.00222487,-0.000228917
14/04/2019 21:33,23.41013336,22.57291603,51.20995331,1028.252197,358.5970306,0.3860841,158.7891394,-21.80596733,-8.115952492,14.40776062,0.017456107,0.009954495,0.988678098,0.002383204,0.00027862,0.004015768
14/04/2019 21:33,23.31952667,22.57500076,51.11374664,1028.237305,358.6600065,0.492633637,158.8322925,-22.15548706,-8.373682976,14.38177967,0.015274093,0.01044008,0.990140319,-9.55E-05,0.001456759,-0.001369566
14/04/2019 21:33,23.33764839,22.58333397,51.07393265,1028.250244,358.6563649,0.440672279,158.9795378,-22.52334595,-8.464978218,14.3688488,0.016001431,0.009226118,0.990627706,0.001426972,-0.001867752,0.001298662
14/04/2019 21:33,23.28328514,22.57916641,51.00426483,1028.213623,358.6099414,0.463712108,159.0249995,-22.62288094,-8.56048584,14.42901134,0.015516539,0.010197288,0.989652932,-0.000113558,-0.000288485,-0.001980666
14/04/2019 21:33,23.22891998,22.57916641,50.7919426,1028.22998,358.7315563,0.367642509,158.9171918,-22.73764992,-8.675714493,14.4970541,0.014546755,0.012382422,0.988190711,0.000864092,3.18E-05,-0.00129078
14/04/2019 21:33,23.39201355,22.59166718,51.11706161,1028.268555,358.7213666,0.341963826,158.9616017,-22.52975082,-8.54097271,14.45693874,0.019638117,0.008740533,0.983073056,-4.39E-05,-0.000836596,-9.41E-05
14/04/2019 21:33,23.35577011,22.60208321,50.83507156,1028.260498,358.7840009,0.318049386,159.1230674,-22.57991409,-8.412560463,14.96769619,0.016001431,0.01044008,0.989896595,-0.000391452,-0.001126129,0.000799738
14/04/2019 21:33,23.39201355,22.61041641,50.72891235,1028.25293,358.8101059,0.285939066,159.0749965,-22.89729881,-8.63407135,15.30109692,0.016243877,0.008983325,0.990871429,-0.002452488,0.002786982,0.00262245
14/04/2019 21:33,23.33764839,22.60833359,50.93791199,1028.259766,358.8504661,0.17775035,159.2878935,-22.64682579,-8.602911949,14.8133316,0.015031647,0.00752657,0.988190711,5.59E-05,-0.000880364,0.003662596
14/04/2019 21:33,23.33764839,22.62083244,50.63933563,1028.244629,358.850102,0.222408635,159.3798142,-22.71245956,-8.673741341,14.47404289,0.016001431,0.010925665,0.989409208,-0.001819612,-0.000526982,-0.000862954
14/04/2019 21:33,23.39201355,22.62708282,51.21658707,1028.234131,358.7121273,0.213831825,159.6702748,-22.85580635,-8.807994843,14.62183762,0.017213661,0.010197288,0.989652932,-0.001479605,0.001358566,0.0011533
14/04/2019 21:33,23.41013336,22.62916756,50.78530884,1028.220215,358.7784882,0.140446845,159.5296412,-22.833601,-8.839533806,15.2137537,0.017940998,0.010682873,0.988678098,-0.000256615,-0.000181852,-0.001927061
14/04/2019 21:33,23.31952667,22.63958359,50.83507156,1028.270508,358.7893011,0.217923575,159.3502531,-22.79608345,-8.820430756,14.84337044,0.015274093,0.009954495,0.989652932,-0.001175772,-0.000174809,0.001462344
14/04/2019 21:33,23.39201355,22.63750076,50.89810181,1028.24585,358.8535108,0.211049163,159.3231373,-22.56807327,-8.725428581,15.12255287,0.017213661,0.00946891,0.989896595,0.000658432,0.001018164,0.003803112
14/04/2019 21:33,23.31952667,22.64791679,50.78530884,1028.191162,358.8251294,0.289840171,159.377246,-22.62062645,-8.323158264,14.65069389,0.015758984,0.00946891,0.989896595,-0.000284864,0.000154909,-0.000810957
14/04/2019 21:33,23.41013336,22.65833282,50.8649292,1028.197266,358.8877955,0.280708929,159.3247219,-22.95589638,-8.491333961,14.32847309,0.016971214,0.009954495,0.988921821,-0.00091709,-0.00253296,0.001914022
14/04/2019 21:33,23.51886177,22.67291641,51.16350555,1028.265625,358.8744309,0.252083446,159.2790006,-22.46572113,-9.161932945,14.69404125,0.016728768,0.008740533,0.990140319,0.001560478,-0.000709295,0.001888318
14/04/2019 21:33,23.51886177,22.67916679,51.49857712,1028.249268,358.8993424,0.273738107,159.3103511,-22.60264778,-8.768351555,15.17967033,0.015758984,0.008740533,0.990627706,0.001552729,-0.000712512,-0.000282632
14/04/2019 21:33,23.53698349,22.69791603,51.71421814,1028.250488,358.9077122,0.275296618,159.493769,-22.77449036,-8.992912292,14.93104744,0.016728768,0.009711703,0.987947047,0.000629537,0.000520503,0.001704495
14/04/2019 21:33,23.48262024,22.71458244,51.44549561,1028.259033,358.8966634,0.280332068,159.4518044,-22.78935814,-8.295085907,14.67732143,0.015758984,0.009711703,0.989165485,0.002414797,-0.00272733,0.002282863
14/04/2019 21:34,23.50074005,22.73958397,51.44881439,1028.276611,358.9224094,0.326108316,159.3653615,-22.58829498,-8.086779594,14.64286804,0.015758984,0.008983325,0.990384042,2.37E-05,-0.001791402,0.000774462
14/04/2019 21:34,23.46449852,22.75416756,51.60805511,1028.260986,358.9858899,0.344730159,159.254808,-22.77085876,-8.387048721,15.10695934,0.016728768,0.008983325,0.990384042,2.22E-05,0.000304053,0.001708459
14/04/2019 21:34,23.50074005,22.76458359,51.51516724,1028.276123,359.0476194,0.308532318,159.2682089,-22.70152664,-8.469376564,15.04645443,0.02133524,0.012382422,0.98745966,0.000611013,0.001235233,-0.001527751
14/04/2019 21:34,23.57322502,22.76874924,51.74407578,1028.243652,358.9907536,0.414270183,159.4244973,-22.61393547,-8.772976875,15.54328728,0.015516539,0.01044008,0.988190711,-0.000950558,2.70E-05,-0.003067724
14/04/2019 21:34,23.51886177,22.76666641,51.24312592,1028.23877,358.9963783,0.439373156,159.4092796,-22.51746559,-8.9168787,15.71881962,0.016243877,0.010925665,0.988678098,-0.001848783,4.49E-05,-5.74E-05
14/04/2019 21:34,23.53698349,22.76458359,51.39241791,1028.260254,358.9263816,0.423678502,159.4936051,-22.40709686,-8.747494698,15.59819221,0.016486323,0.00849774,0.989165485,-0.000260586,-0.000208791,0.00286537
14/04/2019 21:34,23.50074005,22.75625038,51.34597015,1028.266602,358.941338,0.449266205,159.5310892,-22.4852829,-8.382446289,14.92121792,0.016001431,0.011411251,0.988921821,0.000652257,7.05E-05,-0.001466926
14/04/2019 21:34,23.57322502,22.75833321,51.47535706,1028.27124,359.0436173,0.515049357,159.6652614,-22.56586456,-8.556570053,14.49077892,0.018910781,0.009711703,0.988678098,-0.000586988,0.001538149,0.002674868
14/04/2019 21:34,23.53698349,22.77499962,51.13365173,1028.277588,359.101244,0.487741407,159.507566,-22.64922714,-8.701594353,14.3152647,0.015758984,0.008983325,0.988678098,0.00066774,-0.000259331,-0.000505755
14/04/2019 21:34,23.48262024,22.78333282,51.20331573,1028.282959,359.1126271,0.330237379,159.7192746,-22.70553589,-8.659162521,14.58050919,0.015274093,0.008983325,0.991115034,-0.000183986,-0.000837547,0.000845861
14/04/2019 21:34,23.53698349,22.78125,50.7919426,1028.314453,359.1457866,0.303528217,159.5946783,-22.67139626,-8.329346657,14.58043289,0.016243877,0.007769363,0.991115034,0.001914946,-0.002633307,-0.001358366
14/04/2019 21:34,23.53698349,22.78750038,51.21327209,1028.283203,359.2062471,0.220866213,159.7222525,-22.64527702,-8.952480316,14.87295532,0.016728768,0.00849774,0.989409208,-0.001085047,0.00127455,-0.00017672
14/04/2019 21:34,23.59134674,22.79166603,50.8649292,1028.297607,359.1494173,0.217712627,159.6926778,-22.7395649,-8.391881943,15.16480541,0.015031647,0.00849774,0.988190711,-0.0013339,0.001880676,0.00279345
14/04/2019 21:34,23.55510521,22.81041718,50.89810181,1028.261963,359.1130783,0.197458648,159.7438223,-22.74919128,-8.684711456,15.19893646,0.015758984,0.011168458,0.991846144,-0.000130387,8.97E-05,0.001192611
14/04/2019 21:34,23.53698349,22.82083321,51.11374664,1028.266846,359.0939242,0.068907644,159.7180315,-22.78746414,-8.441749573,14.80099392,0.015516539,0.01044008,0.990140319,-0.001589352,0.001885256,0.003001271
14/04/2019 21:34,23.57322502,22.83541679,50.94123077,1028.272217,359.0978627,0.172711845,159.7098899,-22.93847847,-8.588799477,14.96591091,0.016486323,0.008983325,0.990871429,0.000763297,-0.000566786,-6.45E-05
14/04/2019 21:34,23.70007515,22.83333397,51.16682434,1028.280518,359.1130329,0.196507904,159.8383657,-22.8182888,-8.685064316,14.49249458,0.016001431,0.009226118,0.991115034,0.000127388,0.000631948,0.001697905
14/04/2019 21:34,23.66383171,22.84375,50.81184769,1028.296875,358.9571226,0.180023283,159.7157365,-22.9023037,-8.608724594,14.28486443,0.017940998,0.010197288,0.989165485,0.001009675,-0.002028731,0.001325509
14/04/2019 21:34,23.70007515,22.86249924,50.81516647,1028.30127,358.9783279,0.271318566,160.0074812,-22.56599426,-8.577077866,14.72282219,0.016243877,0.011654044,0.988921821,0.000968385,-0.000793889,0.000244353
14/04/2019 21:34,23.77256012,22.86666679,50.7919426,1028.291016,358.9006174,0.38893485,159.9704616,-22.55121613,-8.509443283,15.34967327,0.017698551,0.010682873,0.989896595,0.000636455,0.000146007,-0.00312455
14/04/2019 21:34,23.70007515,22.87916756,50.48673248,1028.269775,358.8660782,0.318152613,159.9510092,-22.43037796,-8.799715996,15.85212612,0.015758984,0.011168458,0.990871429,0.000331271,-0.000464804,0.002067495
14/04/2019 21:34,23.79068184,22.88958359,50.76208496,1028.269775,358.9959983,0.337955412,160.0083145,-22.50403023,-8.570401192,14.74328899,0.017456107,0.009954495,0.990140319,-0.001806868,0.001062104,0.001150757
14/04/2019 21:34,23.82692337,22.90833282,50.58957291,1028.288086,359.0279405,0.343171916,159.9314749,-22.51566315,-8.651161194,15.16716385,0.016971214,0.011168458,0.990140319,2.58E-05,0.002588962,-0.003430784
14/04/2019 21:34,23.89941025,22.92291641,50.74217987,1028.307861,359.0034087,0.308408974,159.8903571,-22.55039406,-8.547756195,15.21526146,0.016001431,0.01044008,0.987947047,2.60E-05,0.001367209,0.001150576
14/04/2019 21:34,23.7544384,22.9375,50.72559357,1028.297852,358.9465244,0.365283826,159.8897698,-22.7305603,-9.159126282,15.2444706,0.015516539,0.01044008,0.989652932,0.00094218,0.001061855,-0.000987606
14/04/2019 21:34,23.70007515,22.94791603,50.41374207,1028.278076,359.0002241,0.368151465,159.8111406,-22.6551342,-8.582268715,15.3033886,0.017213661,0.010197288,0.989165485,0.000331488,-0.000465229,0.001761107
14/04/2019 21:34,23.80880356,22.95624924,50.51990509,1028.27002,358.7992251,0.527518935,159.7206269,-22.51067734,-8.509836197,14.93304634,0.021092795,0.00946891,0.985510051,-0.001196044,0.000451328,0.000539504
14/04/2019 21:34,23.82692337,22.96875,50.69241714,1028.266357,358.8032972,0.531789297,159.7695857,-22.62238121,-8.598780632,14.57913494,0.016486323,0.008254947,0.989165485,0.000942001,0.000145795,0.001149805
14/04/2019 21:34,23.86316681,22.97708321,50.44360352,1028.277344,358.8857225,0.601169612,159.9187981,-22.72029686,-8.686232567,14.77300549,0.017940998,0.009954495,0.988434374,-0.001196317,0.000451128,0.002065692
14/04/2019 21:34,23.86316681,22.97083282,50.55639648,1028.307129,358.9223352,0.481790605,159.9039765,-22.67876816,-8.854237556,15.02115536,0.016971214,0.009954495,0.988434374,0.000636114,-0.000465219,0.002370404
14/04/2019 21:34,23.71819687,22.97500038,50.58625793,1028.275391,358.8852607,0.597879542,159.8803031,-22.62962151,-8.738819122,14.64849854,0.018183446,0.011168458,0.988678098,0.000941154,-0.001381103,0.002980344
14/04/2019 21:34,23.91753006,22.98125076,50.38056946,1028.286621,358.970035,0.614961311,160.0337638,-22.50559235,-8.773844719,14.69916248,0.017940998,0.010197288,0.989409208,-0.000586018,0.00045129,-0.000685232
14/04/2019 21:34,23.82692337,22.99791718,50.06540298,1028.276367,359.0306825,0.652210228,159.8318361,-21.83761406,-8.884080887,15.0246067,0.015031647,0.013596384,0.991115034,0.000941239,-0.001992015,-0.002517469
14/04/2019 21:34,23.68195343,22.99583244,50.22132874,1028.285645,359.012764,0.598294689,159.7412405,-22.12340927,-8.869802475,15.54821873,0.020850349,0.012139629,0.989896595,-0.002723728,0.002284044,0.001147361
14/04/2019 21:34,23.82692337,23.00833321,50.89478683,1028.285645,358.9742989,0.619397786,159.6038034,-22.13569832,-8.780236244,15.01522636,0.017940998,0.010925665,0.989652932,0.000330538,0.000451451,0.002063584
14/04/2019 21:34,23.82692337,23.00833321,50.67582703,1028.257568,358.9052086,0.585517433,159.5677537,-22.52575493,-8.829566956,14.59412384,0.019638117,0.010925665,0.989165485,0.000941418,-0.000159206,-0.001906784
14/04/2019 21:34,23.79068184,23.01874924,48.28388596,1028.257813,358.9101456,0.574670292,159.4098124,-22.34254265,-8.925077438,14.37594509,0.019638117,0.009954495,0.987947047,-0.000280472,-0.000770018,-0.000685129
14/04/2019 21:34,23.88128853,23.02291679,50.13838959,1028.264648,358.9826711,0.686757005,159.5681361,-22.91815186,-8.99238205,15.03428268,0.020365456,0.011168458,0.990140319,-0.001196677,-0.00015915,0.002368528
14/04/2019 21:34,23.80880356,23.03333282,50.08530807,1028.251953,358.9791399,0.628513687,159.6685126,-22.83113289,-8.717726707,14.73209953,0.020123012,0.01044008,0.988921821,-0.000280438,-0.000159122,0.001756996
14/04/2019 21:34,23.91753006,23.04375076,50.23127747,1028.281494,358.9949371,0.650143883,159.6438283,-22.64377213,-9.543402672,15.12386799,0.020850349,0.011168458,0.989409208,-0.000280498,-0.00260217,0.003283594
14/04/2019 21:34,23.93565178,23.06041718,50.05876923,1028.259766,358.9654402,0.595934699,159.6621742,-21.94791412,-9.241940498,15.13056374,0.018183446,0.011168458,0.988190711,0.001552062,-0.000769444,-0.000992924
14/04/2019 21:34,23.79068184,23.07083321,50.31421661,1028.289307,359.0547061,0.547901127,159.6042952,-22.10626221,-9.044342041,15.2314043,0.018910781,0.01044008,0.988434374,0.002162868,0.000146907,0.000533493
14/04/2019 21:34,24.02625847,23.07708359,50.25118256,1028.231934,359.0458909,0.487762058,159.5473587,-22.25934982,-9.066758156,15.18427467,0.018668335,0.010682873,0.990627706,0.000330443,0.00014719,0.005114241
14/04/2019 21:34,23.88128853,23.08749962,49.9360199,1028.262207,358.9658073,0.387936922,159.7249983,-22.6460228,-8.506917953,15.29422379,0.019638117,0.011654044,0.989165485,-0.00028025,-0.000768899,0.001448432
14/04/2019 21:34,23.91753006,23.09791756,50.34739304,1028.281982,358.9475027,0.389901349,159.8163042,-22.56744194,-8.420613289,15.29111671,0.020365456,0.011896837,0.98745966,2.50E-05,-0.001684939,0.00572318
14/04/2019 21:34,23.97189331,23.10416603,49.99573517,1028.276123,358.9094677,0.325244564,159.9352178,-22.58288765,-8.401322365,14.61834621,0.018668335,0.012625214,0.988190711,-0.00150197,-0.000463027,0.001446305
14/04/2019 21:34,23.93565178,23.10000038,51.193367,1028.248291,358.9155947,0.389372169,159.8413574,-22.57471848,-8.351696968,15.22286892,0.019638117,0.009711703,0.990627706,-0.000585759,0.000148045,0.000224575
14/04/2019 21:34,23.93565178,23.10416603,50.40379333,1028.255127,358.9170149,0.512811136,159.823353,-22.21685982,-8.683316231,15.60416698,0.018183446,0.01044008,0.988190711,0.00033012,-0.001989879,0.001751127
14/04/2019 21:34,23.97189331,23.11874962,50.32085419,1028.263672,358.8658247,0.525522652,159.8333524,-22.25905609,-8.559705734,14.99669743,0.018425889,0.012382422,0.989165485,2.49E-05,0.001064372,-0.001303531
14/04/2019 21:34,23.89941025,23.10833359,50.02890778,1028.265625,358.8574694,0.563965145,160.0214148,-22.57292366,-8.641064644,15.0978117,0.019880565,0.011168458,0.989409208,0.000941405,0.000148306,0.002666041
14/04/2019 21:37,13.6971159,0,-2.209005356,0,0.554794175,2.199027641,180.4929571,-16.95860672,0.553278506,10.62922001,-0.12613301,-0.063201189,1.272585034,-0.165213957,-0.340717137,0.716169357
14/04/2019 21:37,13.89645004,13.00416756,28.78672981,1015.24585,344.9557758,15.96287951,216.7335446,-27.70508766,0.960581839,20.31693077,0.335302711,-0.108069204,0.970157146,0.40502876,-0.127525195,0.661802351
14/04/2019 21:37,13.78772259,13.07916641,18.35308075,1021.85498,347.7870412,18.10299634,214.7210567,-26.7821064,3.628831148,22.33362579,0.524168074,0.0293779,0.688687265,0.032706384,-0.132412121,-0.076122873
14/04/2019 21:37,13.86020756,12.91041756,13.84786606,1018.704834,357.5407029,24.12925346,211.4694632,-23.51182938,9.671894073,23.34244728,0.011637404,0.029863488,1.137576818,0.038509604,0.042295344,-0.087729312
14/04/2019 21:37,13.96893501,12.92916679,10.28151512,1018.879395,358.5926359,21.42624537,210.1713721,-19.63290215,14.90915966,22.82699203,0.795465052,0.01044008,1.06739223,-0.039070282,0.327874869,-0.088645607
14/04/2019 21:37,14.02330017,12.96666718,8.937913895,1016.882324,4.913147169,25.91931285,206.2610478,-18.55275154,18.26689148,22.68051147,0.673757195,0.052928779,1.066661119,-0.095880747,-0.244811311,-0.165614635
14/04/2019 21:37,14.07766342,12.95208359,12.87914658,1017.16626,16.11793504,31.06592699,218.9298466,-18.18992805,20.60590172,22.17752266,-0.136006445,-0.120130494,1.190459132,-0.160937905,-0.039560594,-0.008011396
14/04/2019 21:37,14.00517845,13.07500076,14.90947723,1017.989502,11.6381574,17.46214359,222.7606402,-19.38448524,18.26708603,23.27573967,0.231535852,-0.064407311,0.996720076,-0.10809806,-0.031619348,0.015201481
14/04/2019 21:37,14.16827011,13.16041756,27.16777229,1018.871094,4.757779575,16.30397915,230.8498654,-18.27090073,15.59181309,24.32839775,0.319301248,0.135963842,0.911426246,-0.023798652,-0.094233036,-0.050771963
14/04/2019 21:37,14.13202667,13.06041718,13.53270054,1020.907471,4.145450128,31.21842804,224.9370936,-17.3435955,16.73103905,23.82838058,-0.166860893,0.19593361,1.204837322,0.335390121,0.04107362,-0.033973169
14/04/2019 21:37,14.18639183,12.95624924,5.016586304,1016.823975,10.39785908,34.34790802,206.1497977,-17.36240768,23.19034004,20.81490135,0.273478985,0.210258365,1.273803473,0.125863329,-0.252752542,-0.291452855
14/04/2019 21:37,14.2045126,13.14583397,19.50758171,1016.42749,9.641311471,21.44491057,184.829731,-19.67258263,29.69626999,18.09231949,0.669635594,0.079878755,1.257475734,-0.06900268,-0.235648334,-0.326883048
14/04/2019 21:37,14.24075508,13.24791718,34.99052048,1018.172852,8.964940889,8.48169476,174.5371651,-24.2746048,32.22158051,18.48583221,0.428886831,-0.160415217,0.335083187,-0.128256604,-0.053915925,-0.197685063
14/04/2019 21:37,14.02330017,13.57500076,57.70568848,1022.63208,8.531859939,2.857923184,170.9210034,-27.14824104,33.28150177,19.7844696,-0.11156971,0.023065295,0.439629108,-0.036626823,0.042295344,-0.16042228
14/04/2019 21:37,13.91457176,13.49791718,58.4289093,1024.27832,13.39488462,358.2256411,165.3326792,-29.46387291,33.05934525,18.87155533,0.649512589,-0.264866054,0.570494354,-0.137419581,-0.018180313,-0.12896271
14/04/2019 21:38,13.93269348,13.42291641,58.70426559,1024.274902,7.227447486,350.6414114,168.6408403,-32.25991821,28.23491287,20.4785099,0.117343821,-0.041249629,1.051551938,-0.113290414,0.093608029,-0.084064119
14/04/2019 21:38,13.87832928,13.33333397,57.02890778,1024.263672,0.534712298,350.3571389,176.2996817,-34.00532913,26.46505547,24.54749107,-0.073557019,-0.090942159,0.619721055,0.015296724,0.064897358,0.017644944
14/04/2019 21:38,13.84208679,13.28125,57.95118713,1024.324707,2.790085745,348.0599713,178.6991408,-34.96638107,24.36334991,26.39121056,-0.193272308,-0.429140866,0.751561105,-0.037543118,0.169049889,-0.047412205
14/04/2019 21:38,13.82396507,13.22500038,57.43696594,1024.118408,6.927175295,341.4677331,180.0270152,-36.1625061,23.47276878,27.99748993,0.196381196,-0.058376666,0.972106695,-0.040292013,-0.040782325,-0.01076029
14/04/2019 21:38,13.76960182,13.18124962,57.75213242,1024.189941,7.004776489,340.5404922,178.0975651,-36.58961105,24.35379791,28.93745232,0.347909898,0.138634562,1.069341779,0.026903164,-0.053305067,0.038414359
14/04/2019 21:38,13.73335838,13.14583397,58.82038116,1024.804932,18.1758625,342.2454714,176.2706398,-37.20939255,24.44021797,29.45001602,-0.268063515,-0.435171515,1.02230823,0.010715235,0.098189518,-0.059324078
14/04/2019 21:38,13.6971159,13.12708282,56.71042633,1025.04834,20.49725085,341.7314826,177.3392365,-37.96591187,24.52592278,30.12366104,0.347667426,0.239636272,1.070560336,-0.010359616,-0.071020156,-0.044968743
14/04/2019 21:38,13.552145,13.09791756,58.38246536,1024.85376,18.00965497,341.0962886,181.6547586,-38.13066483,23.91008759,30.14912033,-0.008886083,-0.058135439,0.709888935,-0.064115763,0.152556524,-0.068487056
14/04/2019 21:38,13.58838844,13.04166603,57.40379333,1024.888916,21.97143448,343.5743513,180.2408275,-39.04437256,23.39481544,30.48778915,0.203654557,-0.008442907,1.111257672,0.029652059,-0.034368239,-0.016258078
14/04/2019 21:38,13.51590347,13.02499962,58.30284119,1024.785156,26.19428773,343.7059741,179.3604534,-39.32037735,23.86369896,30.78152466,0.22159557,0.145918339,0.981854618,0.032400951,0.075282067,-0.047412205
14/04/2019 21:38,13.57026672,12.98333359,57.31421661,1025.23999,30.45784891,343.6516878,177.4633274,-38.80256653,24.29737091,30.63453102,-0.095525391,0.083277851,0.977468073,0.026597731,-0.013598822,-0.038249224
14/04/2019 21:38,13.42529678,12.95416641,57.31089783,1025.363037,25.70703057,343.7907231,176.1581739,-38.69237518,24.81467056,30.0642643,0.12607187,0.099544957,0.811023116,0.070274591,0.085666776,-0.025115624
14/04/2019 21:38,13.40717506,12.90625,57.79526138,1025.217041,25.50957663,353.2093768,176.5818505,-39.03348541,24.47359467,29.86827087,0.422583222,-0.408636659,0.851476789,-0.010970482,-0.119583942,0.004205909
14/04/2019 21:38,13.42529678,12.86666679,58.30947876,1025.330322,21.79395885,353.4260885,177.4283705,-38.95625305,24.75341797,29.50794029,0.146679774,-0.061271381,1.116862655,-0.044568069,0.173936799,-0.044968743
14/04/2019 21:38,13.29844761,12.79791641,57.79526138,1025.785156,16.32235236,355.9578198,180.5809572,-37.9985466,24.79370689,29.72585297,-0.021474702,-0.245326743,0.853913784,0.053781237,-0.048112705,0.023448164
14/04/2019 21:38,13.31656837,12.77083397,58.11042786,1025.489502,25.94990015,0.38504375,179.4317333,-37.2212677,24.51473618,29.6966095,0.551079571,-0.245085523,1.174375057,-0.052203886,-0.049334437,-0.027864516
14/04/2019 21:38,13.11723423,12.72291756,57.65924072,1025.406494,18.33954628,359.2669429,184.8521341,-36.32000732,25.23754501,30.9160099,0.524168074,-0.188638657,1.0052495,0.037898738,0.067340821,-0.04313615
14/04/2019 21:38,13.26220512,12.70833397,59.38768005,1025.506592,9.459367184,3.621041437,185.7364523,-35.40964127,26.16028404,30.49596977,0.016971214,-0.177542254,1.038635969,0.048283447,-0.060940884,-0.024199326
14/04/2019 21:38,13.20784092,12.68124962,58.94313049,1025.495605,13.51402702,356.213347,188.0802454,-34.92189407,26.2101059,30.89121246,0.358335078,0.172382727,0.879501939,-0.077249363,-0.086597219,-0.008011396
14/04/2019 21:38,13.20784092,12.64999962,58.2298584,1025.505371,12.3958337,354.8007016,190.4969576,-35.17043304,25.68309212,30.65859985,0.30669409,-0.219756782,0.885350645,-0.032961629,0.067646258,-0.003429906
14/04/2019 21:38,13.17159843,12.625,57.42037964,1025.342285,1.356364792,346.3926905,195.8030447,-35.62492371,24.93223381,31.10208511,-0.156740636,-0.216862082,0.786166072,-0.019828027,-0.042309485,0.010925425
14/04/2019 21:38,13.00850677,12.54375076,57.45355225,1025.713867,352.9978553,348.6455507,200.0747133,-35.33168793,24.37968826,31.06336594,-0.083430447,0.042003114,1.108820558,0.008271774,0.078336395,-0.042219847
14/04/2019 21:38,13.09911346,12.54583359,56.82322311,1025.106934,3.580127323,346.3631013,199.1640851,-34.17403793,24.58302689,31.47399902,0.205109254,-0.009649036,0.839779377,-0.003945531,-0.159901053,0.011230858
14/04/2019 21:38,13.00850677,12.48333359,55.4763031,1024.841309,4.104682436,338.4596461,201.5746501,-34.5973587,23.88833427,31.27129173,0.057944573,-0.117959462,0.851476789,-0.130089208,0.058788709,0.018255809
14/04/2019 21:38,13.04474926,12.46666718,54.9654007,1024.54834,355.9874231,345.2441105,204.7810688,-34.27106857,23.98637581,31.08658981,-0.082443111,0.087648116,1.072509766,0.124947026,-0.081404865,0.053685993
14/04/2019 21:38,13.00850677,12.47916603,56.77346039,1024.718506,8.470672543,346.9155005,196.108559,-32.79459763,25.00588226,30.55649948,0.477860898,0.286495239,0.878527105,-0.053425618,-0.161122784,0.069263056
14/04/2019 21:38,12.8816576,12.43333244,56.82653809,1025.304688,5.945195156,347.9305904,198.1591321,-32.57994843,26.74178505,29.39093018,0.197835863,0.080849931,1.158047438,-0.003945531,-0.151959807,-0.018396106
14/04/2019 21:38,12.89977837,12.37708282,56.73033142,1025.245361,2.821384233,346.7332497,199.9273451,-32.15552521,27.63399506,28.76515007,0.262326479,0.19302009,1.18144238,-0.068697244,-0.175478116,-0.06360013
14/04/2019 21:38,12.91790009,12.35000038,56.45497894,1024.744141,4.676814086,345.5071445,200.8260204,-32.49594116,27.43468857,28.8329277,0.125586987,-0.094801776,0.802981138,0.033011816,-0.031924777,-0.005567935
14/04/2019 21:38,12.8816576,12.28333282,56.53128052,1025.396973,3.894348895,349.3732194,204.9536403,-32.3463974,27.80457115,29.27712059,0.319786161,0.288680345,0.718905687,-0.03845942,0.059399575,0.05124253
14/04/2019 21:38,12.80917263,12.27083397,57.03886414,1025.368896,357.9317451,351.0153207,205.5333458,-32.06053543,27.984869,29.28513718,0.12243519,-0.084187843,0.872191012,0.069358304,0.044433378,0.050326236
14/04/2019 21:38,12.75480843,12.23749924,57.25118256,1025.121582,355.0268693,346.2790089,205.9057687,-31.94847298,28.41307259,29.3430748,0.253840864,-0.011578843,0.889737189,-0.02593668,0.004421702,-0.018701538
14/04/2019 21:38,12.68232346,12.18958282,57.30426788,1025.172363,0.566072258,342.3218158,209.9026451,-31.51942444,28.56139755,29.1060524,0.186683357,0.177481368,0.886081696,-0.023798652,-0.080793999,-0.008927695
14/04/2019 21:38,12.66420174,12.13958359,55.32701492,1025.490234,1.502901698,341.5335744,210.1883383,-31.94804382,27.86309433,29.28699112,0.162923649,0.389682084,0.728409886,0.010715235,0.235328764,-0.058407776
14/04/2019 21:38,12.57359505,12.08541679,56.19620895,1025.178955,4.576063673,337.5891692,206.8071488,-32.68202591,27.29757118,28.74538422,-0.447513044,-0.391268402,1.151223898,-0.051898453,-0.100341693,0.030167682
14/04/2019 21:38,12.68232346,12.08958244,55.2938385,1024.828125,14.56794826,338.8614559,199.5192686,-32.49586487,26.76157761,30.27281761,-0.308791399,-0.034495305,1.122467637,0.097763538,0.156832576,0.013063455
14/04/2019 21:38,12.79105091,12.12291718,56.88293839,1024.612549,24.08020758,337.0001678,194.4766766,-32.42147446,26.96072197,30.88090515,-0.24288629,-0.331203163,0.892661572,-0.041208312,-0.053915925,0.012452589
14/04/2019 21:38,12.57359505,12.10625076,56.71374512,1024.547363,13.44949625,343.7917203,203.0435233,-32.60715103,27.49378967,30.42155647,0.453858733,-0.045591693,1.082745194,-0.064115763,0.544121146,-0.091699935
14/04/2019 21:38,12.66420174,12.08333397,56.78009415,1025.02002,17.43822598,343.3075111,201.7262393,-32.38683319,27.32997513,30.2642498,-0.09700641,-0.192498267,1.044972181,-0.025325814,-0.125998035,-0.033667736
14/04/2019 21:38,12.66420174,12.08749962,57.06871796,1024.839844,13.2419712,349.9368082,205.2621463,-32.28414917,27.65655327,30.31395149,0.487316281,0.357147872,0.803224862,0.107842803,0.07192231,0.008787397
14/04/2019 21:38,12.55547428,12.10416603,58.00426483,1025.088623,13.54908382,346.5999039,202.4630665,-32.8119812,27.93794823,30.39269829,0.067884855,0.121153489,0.95334208,-0.07327874,0.026718283,0.030167682
14/04/2019 21:38,12.57359505,12.03541756,57.14834213,1025.561523,14.74049421,343.6666903,199.4920435,-33.98930359,27.15140152,30.41776657,0.028851066,-0.043179438,0.855132222,-0.018300865,-0.06888213,-0.047412205
14/04/2019 21:38,12.55547428,12.04999924,56.77346039,1024.813232,18.09009411,340.7444997,201.0696396,-33.82437897,25.97973824,30.58750343,0.252143741,0.199332699,0.860737264,-0.025020383,-0.004130411,0.012147157
14/04/2019 21:38,12.60983753,12.04999924,57.07203674,1025.230469,8.739579652,340.6534841,202.9123017,-34.02007675,25.58963394,30.16232491,0.233475417,-0.158726633,1.039610744,2.51E-05,-0.034673676,0.028640518
14/04/2019 21:38,12.55547428,12.04583359,56.99241638,1024.940674,3.860697407,340.1696932,204.6072951,-33.51768112,26.03734398,30.47278976,0.04461005,-0.439031124,0.894123733,0.068747431,0.225249484,-0.094754264
14/04/2019 21:38,12.50111008,12.03541756,57.85165787,1025.408691,356.1585821,339.4431575,203.87626,-33.34209442,26.88097191,29.61551476,0.006061148,0.252989858,0.954560518,0.000330526,-0.00749017,-0.063905567
14/04/2019 21:38,12.53735256,12.03750038,56.2061615,1025.62085,0.324651298,338.2636026,203.4968156,-33.47695541,27.0325222,29.04292488,0.073218666,0.109985039,0.949686646,-0.045789801,0.139117494,0.021004701
14/04/2019 21:38,12.50111008,12.01250076,56.48151398,1025.271484,8.23503187,340.5840091,202.2955629,-33.13727951,27.26098061,29.34724808,0.00775827,-0.01640336,0.950174034,0.134110004,-0.091178708,-0.005567935
14/04/2019 21:38,12.62795925,12.05208397,56.88293839,1025.331787,4.043162496,343.5919253,204.9213062,-33.51043701,26.67893219,30.02080154,0.177712858,0.290865511,0.826863408,0.033317249,0.11987523,-0.071541384
14/04/2019 21:38,12.50111008,12.04999924,57.06208801,1025.698486,12.27565396,347.7173425,201.419236,-33.93836975,26.1292305,29.99980545,0.154195607,0.05754184,1.102484584,-0.110846952,-0.107977502,0.007871101
14/04/2019 21:38,12.66420174,12.07500076,56.81658936,1025.279053,8.98602483,344.2972243,206.0648711,-33.7861557,25.57312202,30.24030876,-0.159702659,-0.271620363,1.077140093,-0.002723801,0.08505591,0.018255809
14/04/2019 21:38,12.59171677,12.07916641,57.67914581,1025.432617,3.043979672,340.0782284,209.3187869,-33.62517166,25.75393295,29.85134125,0.191047385,0.049772479,0.905333817,-0.037848555,0.066424526,-0.046495907
14/04/2019 21:38,12.53735256,12.04999924,57.17156219,1025.088623,355.3089544,332.9661061,216.7489809,-34.40724945,25.30516624,30.51467705,-0.122677319,0.052928779,0.841485202,-0.026547546,0.098494947,-0.041608986
14/04/2019 21:38,12.70044422,11.53333282,15.26113605,1021.053955,344.7073738,330.6646039,226.0845381,-33.69942474,23.5781765,31.24599266,0.41579473,-0.473767638,0.935795903,0.011936964,0.22158429,-0.012592886
14/04/2019 21:39,12.77293015,11.56666756,11.0511837,1016.840332,335.6017088,338.5532828,229.1957575,-32.52416611,23.07859421,30.54463387,0.359789729,0.026707184,0.841728926,0.043396525,-0.134855568,0.054602288
14/04/2019 21:39,12.9360218,11.70416641,11.74786568,1017.344238,338.9405938,337.1166943,227.4845493,-31.48658943,23.13302803,30.00580406,0.360032201,-0.067060798,0.976980627,0.088600546,0.299164206,-0.04313615
14/04/2019 21:39,12.9360218,11.78125,11.69810295,1017.194092,340.1266886,341.7011616,227.3350364,-31.09731293,22.71209908,29.69239616,-0.311259776,-0.284646571,0.905821204,-0.020744326,-0.064606071,0.01611778
14/04/2019 21:39,12.99038506,11.85208321,10.68293762,1017.041016,329.4720768,336.2264338,236.8491894,-30.50105667,23.50518417,30.23881531,-0.816038668,-0.372452766,1.233593345,0.109369963,-0.261610091,0.03810893
14/04/2019 21:39,13.06287003,11.92083359,14.09668159,1017.0354,333.5140103,344.4920623,234.7546982,-30.35115242,24.95207977,29.48560333,-0.359392732,-0.235677704,0.977711737,0.041869361,-0.054832228,0.027724219
14/04/2019 21:39,13.17159843,11.99374962,14.95260525,1017.205811,322.3251137,341.8566714,237.8629124,-29.87564468,25.67285538,29.15769196,-0.199936882,-0.120371722,1.488256693,0.032095518,0.129038215,0.037192635
14/04/2019 21:39,13.13535595,12.04583359,14.42511749,1017.102783,326.6459187,346.3954422,234.4552628,-29.01376343,26.32904816,29.27744293,0.301602721,-0.164274842,0.932384133,0.064776808,0.020609632,0.011841724
14/04/2019 21:39,13.31656837,12.08541679,14.83317471,1017.345459,327.8495107,348.2549382,232.5653904,-29.82765579,26.19414139,29.55760002,-0.437886447,-0.088047452,1.022552013,0.001552256,0.127816483,-0.028475381
14/04/2019 21:39,13.37093258,12.11666679,14.06018829,1017.282227,338.3284945,346.3637374,229.7836183,-30.31459427,26.42955971,29.44104576,-0.261152118,0.081335515,0.796401322,0.027208596,-0.012987956,-0.077344604
14/04/2019 21:39,13.29844761,12.12708282,11.54549599,1016.965088,325.2862227,3.169060285,227.155744,-31.51601982,25.53011894,29.4082222,0.030790633,-0.295501739,1.035711527,0.044312824,-0.098814525,0.011230858
14/04/2019 21:39,13.33469009,12.1875,10.71279526,1016.672363,326.6973295,1.66564643,224.5423223,-31.13137817,25.1773262,28.61605263,0.332393378,-0.197805226,1.204106092,-0.072362438,0.023969389,0.002067881
14/04/2019 21:39,13.37093258,12.21041679,8.851657867,1016.40625,337.4723696,4.709995145,221.4199697,-31.62192154,24.34536171,28.4974308,-0.248810336,0.281396598,0.60509932,0.048283447,0.030994341,0.017339511
14/04/2019 21:39,13.40717506,12.27916718,10.80900383,1016.440186,354.9650373,5.59212048,224.6892397,-33.20990372,23.91890144,28.52735519,-0.35470283,-0.020504201,1.130022287,0.008577207,0.127205625,-0.096586861
14/04/2019 21:39,13.53402424,12.30416679,10.58672905,1016.046143,345.6172677,0.258065491,225.3414955,-34.33572769,24.42449951,28.49692345,0.109343104,0.026949978,0.879745662,0.003690284,0.165384695,-0.031224277
14/04/2019 21:39,13.53402424,12.36249924,10.60995102,1016.245117,351.1830104,0.824085162,224.6799097,-35.02488327,24.1692543,28.50688362,-0.087379821,0.054628327,1.020358801,-0.016162837,-0.071631022,-0.026031921
14/04/2019 21:39,13.47966003,12.39999962,10.82227325,1015.706055,349.792091,357.8532481,223.8150848,-35.29299164,23.43621635,28.39324951,-0.28015846,0.09226118,0.849039853,-0.028380141,0.053596355,-0.024504758
14/04/2019 21:39,13.67899513,12.46875,9.455450058,1015.577881,353.8453007,359.0889808,222.5128956,-35.44349289,22.72108078,28.87607956,-0.13872163,-0.028223429,0.905821204,0.021099944,0.182794347,-0.028780814
14/04/2019 21:39,13.78772259,12.54791641,9.339334488,1015.505859,353.0776229,356.9334527,221.1658866,-34.85614777,23.1678009,28.69857216,-0.244614124,-0.11844191,0.810048282,-0.066253781,0.181267187,-0.051993694
14/04/2019 21:39,13.7514801,12.58749962,7.305686951,1015.441406,351.6397597,358.7043369,219.2394864,-34.49344254,22.94355583,28.4405365,-0.00567722,-0.134604052,0.893148959,0.047978017,0.092080861,0.056434885
14/04/2019 21:39,13.84208679,12.62083244,7.408529282,1015.41333,351.0141562,359.3652234,216.5939356,-33.98366165,22.82272911,28.02231598,-0.100215279,0.037632849,1.066904783,-0.006388992,-0.037117131,0.061627239
14/04/2019 21:39,13.84208679,12.69166756,8.981040955,1015.342773,0.129030278,357.8462454,216.5385291,-33.04597855,23.20146561,28.30986214,-0.063436761,-0.03063569,0.998913348,-0.021355191,0.058177844,-0.011371155
14/04/2019 21:39,13.98705673,12.77916718,8.652605057,1015.405762,6.177230342,359.220093,217.4398955,-32.3451004,23.05200386,27.47390938,0.213837296,-0.057652991,1.035224199,-0.09496446,0.006254298,-0.015341779
14/04/2019 21:39,14.09578514,12.84375,10.12890816,1015.472412,13.0631133,358.8515241,216.3569553,-31.30897713,24.6390667,27.31088829,0.060126588,-0.020986654,0.918249726,0.013191639,-0.028213268,-0.00606469
14/04/2019 21:39,14.16827011,12.89791679,10.60995102,1015.672119,16.91417289,358.7108687,217.5017633,-31.38741684,26.21560478,26.40419388,0.475921333,0.051472027,0.885838091,-0.045756854,-0.060283694,-0.001177767
14/04/2019 21:39,14.2588768,12.96666718,10.48056793,1015.828613,9.619293502,355.8727143,214.114331,-31.249897,26.4393425,26.61038399,0.086310744,0.036661681,0.840266764,-0.024682006,-0.024242645,0.037612177
14/04/2019 21:39,14.11390591,13.02499962,11.2336483,1016.263428,11.56712514,357.9253552,209.620531,-28.33557892,26.99136734,24.60773659,-0.226595119,0.066767953,0.957972288,0.008915583,-0.010498177,-0.106246591
14/04/2019 21:39,14.22263336,13.08749962,11.83080482,1016.212891,7.775600049,355.9156446,207.3223636,-26.2841301,26.18143272,20.73875046,0.378215641,0.141790852,1.083232403,0.004639527,0.136720344,-0.045770928
14/04/2019 21:39,14.34948349,13.14791679,12.12274742,1016.176514,4.595193325,353.2218027,207.2728994,-25.63335419,25.91501427,18.76207542,-0.281392664,-0.108792879,0.827838182,-0.024376573,0.027070034,-0.042716604
14/04/2019 21:39,14.33136177,13.15208244,10.18862534,1016.174316,5.384719651,354.5078735,211.977479,-26.1292572,26.66376305,17.52316284,-0.295955926,0.165827319,0.561477542,0.053203315,0.046923153,-0.013395073
14/04/2019 21:39,14.36760426,13.17916679,11.087677,1016.255127,0.817143182,357.9261401,210.5982043,-24.06336021,24.89385796,13.61463737,0.390822798,0.12163908,1.044728398,0.051370718,0.158406064,-0.067456648
14/04/2019 21:39,14.36760426,13.25416756,11.43270111,1016.120361,8.704018272,0.060423982,210.3406788,-26.57904816,24.78723526,13.97744656,0.364153743,-0.152454779,1.103946686,0.021438321,0.031040659,0.000960261
14/04/2019 21:39,14.45821095,13.30208397,11.83080482,1016.373779,5.247844368,0.323357084,212.2923371,-27.48305511,24.28582191,15.04218864,-0.181424201,0.004855852,0.926291704,0.074583597,0.027070034,0.005541749
14/04/2019 21:39,14.53069592,13.29791641,9.399051666,1016.172852,0.92019873,2.375890908,215.3396943,-29.02045441,24.51030159,15.81621742,-0.255228072,-0.029912012,0.950174034,0.127383977,-0.014525929,0.050493509
14/04/2019 21:39,14.47633171,13.46458244,20.60568619,1016.899414,352.656587,359.2566288,220.5279333,-29.31987,25.5859623,16.21918678,0.345485449,0.036418889,0.858056605,-0.105966561,-0.010555304,0.043468557
14/04/2019 21:39,14.47633171,13.43124962,18.22037888,1017.492432,355.725292,3.28853182,217.3017891,-27.45472717,26.14989281,17.01782608,0.177227959,0.115812063,0.960896671,0.113028638,-0.142502204,-0.002957202
14/04/2019 21:39,14.63942337,13.41041756,14.41516495,1016.859863,357.6778887,359.2375137,212.450415,-27.67669678,25.78474808,19.19958496,0.019638117,-0.012061295,0.80517441,-0.093749255,-0.102185093,-0.085424006
14/04/2019 21:39,14.58506012,13.42499924,14.50805569,1016.614014,359.7954962,350.0734906,211.7218933,-27.80411911,25.21955681,22.12740898,0.173106387,0.045159418,0.929459751,-0.076339595,0.039841078,0.074622683
14/04/2019 21:39,14.63942337,13.48749924,18.17061615,1017.057129,5.467009343,349.011514,211.3860666,-26.60911942,25.38657951,23.219944,0.045822278,0.111927383,0.658712626,0.037281342,0.17759119,0.015674187
14/04/2019 21:39,14.6213026,13.51041603,18.39952469,1017.288086,12.46380774,351.6264485,208.4943967,-26.81925392,24.58800125,25.70483208,0.282691926,-0.023157686,0.951148808,-0.098025315,-0.186484501,0.020255676
14/04/2019 21:39,14.65754509,13.53750038,21.1331749,1017.343506,17.19447531,356.3454215,208.7888052,-26.62157249,24.17782402,24.21318817,0.124859653,-0.170305476,1.088106513,0.003072888,0.096651547,0.012008997
14/04/2019 21:39,14.69378757,13.57083321,22.20473862,1017.501221,13.35862485,352.5179453,207.9200461,-27.3691082,24.0669136,23.59401321,0.545260906,0.102215677,0.743275404,-0.010366146,0.007159788,-0.021894025
14/04/2019 21:39,14.67566681,13.57708359,22.19478607,1017.551025,7.886726373,350.2860785,206.1673103,-26.93200493,23.78453827,23.3864212,0.046064727,0.218027726,0.997451186,-0.016169367,-0.108904608,0.010787265
14/04/2019 21:39,14.65754509,13.60208321,24.90853119,1017.661133,9.167504663,344.3112416,201.0068155,-25.90456581,24.30685997,23.58617401,0.144255325,0.094446316,0.879745662,-0.088251464,-0.130284905,-0.031057004
14/04/2019 21:39,14.47633171,13.58333397,24.63980865,1017.965332,4.108751949,348.1360101,202.4755111,-24.9119091,24.89385986,23.84224129,0.121707849,0.228467807,0.927997649,0.04613889,0.032816131,-0.01670167
14/04/2019 21:39,14.53069592,13.55624962,23.60473824,1018.081787,2.830721742,352.2277305,205.0549457,-24.84926224,25.22543716,23.76193428,0.441978902,-0.013026198,0.789090395,0.138990417,0.099400438,-0.085118577
14/04/2019 21:39,14.53069592,13.58958244,26.00663376,1018.334717,348.6188208,347.8841784,207.4814797,-25.96109962,25.09897804,23.78560257,-0.319158494,-0.235195249,1.101022363,-0.024110615,0.063664824,-0.045106903
14/04/2019 21:39,14.47633171,13.51874924,24.93175316,1018.308838,351.1870061,347.8727123,206.4937933,-26.05965805,24.77743912,24.62076569,0.29360202,0.161942646,0.752048492,-0.064427719,-0.045069188,-0.045106903
14/04/2019 21:39,14.40384674,13.5,22.6459713,1017.759766,352.322665,352.5108231,205.868107,-26.02685738,24.45741081,24.81368828,0.48077026,-0.179472059,0.947493374,0.047360614,0.133914322,0.019644814
14/04/2019 21:39,14.51257515,13.48125076,21.74028397,1017.580566,350.0178945,354.0289052,202.005034,-26.10645294,25.38197136,24.81829643,-0.28460148,-0.137498766,1.085913062,0.027507497,-0.014525929,-0.016090805
14/04/2019 21:39,14.51257515,13.47916603,20.39999771,1017.536377,356.764337,350.6583742,199.7292286,-26.64359283,25.17148209,25.04073524,0.364638656,-0.020262975,1.198013783,-0.058929935,0.092986353,-0.058240503
14/04/2019 21:39,14.45821095,13.44583321,16.72417068,1017.181641,359.2017906,353.8445836,201.1094186,-27.3495121,24.53093147,26.13195038,0.188622922,0.047587346,0.869022906,0.106919982,0.003800029,0.1244082
14/04/2019 21:39,14.47633171,13.44791603,16.85355377,1016.970459,353.6828665,351.6914633,200.9187061,-28.3849926,24.17022514,26.25519943,-0.017525332,0.032777,1.018409133,-0.048850656,0.035565022,-0.039914548
14/04/2019 21:39,14.53069592,13.43541718,15.01232147,1016.83252,350.9297495,350.912359,198.3953064,-29.5375042,24.13765717,25.69770241,-0.226348296,-0.072367772,1.334483981,0.043389991,-0.02979756,-0.005706096
14/04/2019 21:39,14.40384674,13.44375038,17.67961884,1016.776367,344.922214,351.8546349,195.7243199,-29.39817238,24.47029114,24.48706245,-0.053563334,-0.311181426,0.770813107,0.01834452,-0.110431768,-0.007844124
14/04/2019 21:39,14.42196846,13.41875076,17.51705933,1016.995605,344.6390873,350.9461104,198.9967318,-29.48893929,24.73861694,23.21017265,-0.216228038,-0.252081066,1.207517982,0.009792406,0.110090584,-0.00845499
14/04/2019 21:39,14.38572502,13.41458321,16.69099426,1016.664551,340.1181816,351.6118157,201.4622389,-30.14022827,24.66036034,23.17040443,-0.29447493,-0.063924864,1.046677947,0.012235867,0.042284541,-0.024032053
14/04/2019 21:40,14.51257515,13.42499924,16.22322083,1016.78418,342.6014403,350.1207452,203.3393798,-31.24244308,23.99676514,25.21042824,-0.352974981,-0.263177454,1.272585034,-0.013115041,-0.068892933,-0.019755997
14/04/2019 21:40,14.44008923,13.44791603,17.9981041,1017.05249,350.5845748,353.8951936,201.6655053,-30.89441681,23.94315529,25.12981224,-0.075531706,-0.139428571,1.171206951,0.08828859,0.013573874,0.002846017
14/04/2019 21:40,14.51257515,13.46041679,20.35023499,1017.127686,359.6469034,353.7944363,198.7906104,-31.25239754,25.08341789,24.73826408,-0.075284868,-0.028223429,0.929459751,0.056218162,0.074354969,0.022088272
14/04/2019 21:40,14.47633171,13.49791718,24.85213089,1017.90625,354.302958,352.0400531,198.9450273,-31.52361298,25.12648392,23.76137733,-0.031594962,-0.192739487,0.764720678,-0.052210413,-0.125703409,-0.079009928
14/04/2019 21:40,14.42196846,13.40416718,18.32985687,1017.738037,3.595907195,353.3202001,198.7568966,-31.85378075,24.49051857,23.43536377,0.112010017,-0.166204646,0.855863333,0.010403272,0.036786754,-0.015785372
14/04/2019 21:40,14.36760426,13.40208244,17.21516418,1017.452148,357.7847581,355.4398784,199.5663286,-32.4923439,23.87994385,24.33202744,0.214807078,-0.115305983,0.941644609,-0.030524701,-0.224358141,-0.046023201
14/04/2019 21:40,14.44008923,13.43541718,20.23412323,1017.363037,357.9037407,350.001561,201.7786542,-32.11307144,24.78722763,24.1929245,-0.277690083,-0.34447059,0.875846446,-0.035717055,0.078936458,-0.038998254
14/04/2019 21:40,14.47633171,13.39583397,17.53696632,1017.412354,0.536348449,350.6777437,202.1036073,-32.83744431,24.92980003,23.39863014,0.203897014,-0.171029165,1.083476186,-0.011282445,0.04106281,-0.013952777
14/04/2019 21:40,14.49445343,13.40208244,16.4289093,1017.04541,359.6392169,352.4683231,203.40984,-33.06863022,23.75632095,23.52099991,0.44173646,0.009954495,0.580729604,0.056829028,0.079241887,0.048050046
14/04/2019 21:40,14.42196846,13.41250038,16.59810257,1017.579834,354.46608,352.6426176,204.5266442,-33.51160431,23.26346779,24.82474709,0.312027901,-0.043661885,1.119786978,-0.053737581,-0.033768181,-0.018839698
14/04/2019 21:40,14.49445343,13.39374924,14.38530731,1017.143555,5.887167149,349.6827021,203.7944206,-33.96217346,22.59174919,26.25861549,0.588901103,0.06142652,0.649208426,-0.046712629,-0.221914679,0.031556681
14/04/2019 21:40,14.44008923,13.42916679,13.50615978,1016.950928,1.017994766,349.5014477,204.0308408,-33.6073761,21.69597435,27.79368401,0.381367415,0.00097117,0.686250329,0.019566251,0.127500236,0.029113224
14/04/2019 21:40,14.47633171,13.38541603,13.66871929,1019.896973,348.0761938,350.7478812,206.7879423,-33.36379242,19.94045067,28.97226524,0.395186841,0.08959046,0.469603837,-0.025332345,-0.025216071,-0.000208309
14/04/2019 21:40,14.44008923,13.38333321,13.98056793,1017.573486,339.9028599,356.3322072,210.0602996,-31.41263008,19.28076172,27.75767708,-0.032088634,-0.048003953,0.696972966,0.051636674,0.064581119,0.001318855
14/04/2019 21:40,14.45821095,13.41875076,16.52843475,1018.541504,358.6807172,356.3791677,210.2765434,-29.46717262,20.44333076,25.60555649,-0.044430416,-0.01640336,0.826863408,-0.034800757,0.114366643,-0.081147954
14/04/2019 21:40,14.42196846,13.43124962,15.82843494,1018.403076,6.415892947,357.5892043,211.6431139,-29.73619652,19.42536545,25.35982132,0.455555856,-0.111687593,1.019871354,0.023842307,0.071911506,0.022699138
14/04/2019 21:40,14.42196846,13.41250038,14.93601799,1018.881836,10.14311949,355.6037735,212.8667697,-30.7503109,17.34083748,26.73911476,0.240748808,0.275812387,1.014022589,-0.032051861,-0.047207218,0.06332168
14/04/2019 21:40,14.36760426,13.39999962,18.7445488,1018.969238,9.365456352,356.5030006,210.6765329,-30.09980392,18.22144127,26.60305023,-0.456645936,-0.148595139,1.255526185,-0.042131141,-0.096687302,-0.015479939
14/04/2019 21:40,14.36760426,13.39374924,17.7592411,1018.9021,15.44981277,2.345218449,214.5481983,-27.86444473,19.2605896,26.44589043,-0.226841956,-0.310457736,1.379080415,0.121580742,-0.100352496,0.012619862
14/04/2019 21:40,14.27699757,13.42708397,23.17677689,1019.463623,28.45744701,1.999555168,213.4302603,-26.84957314,20.03401375,24.93303871,-0.384076267,-0.446750373,1.022795677,0.060799651,0.21393767,-0.037776522
14/04/2019 21:40,14.44008923,13.33749962,18.06113625,1019.634033,21.63574947,1.619118754,212.7744255,-26.30418205,21.76283455,24.085186,0.496771663,0.201275036,0.507133126,0.050720379,0.076187558,-0.004178932
14/04/2019 21:40,14.2588768,13.30208397,18.69146729,1019.535889,9.421426337,357.5426401,212.2659726,-26.76511002,23.27654266,23.3608551,0.537502587,-0.168858126,0.989652932,0.031172691,0.061221365,-0.043274306
14/04/2019 21:40,14.31324005,13.26458359,17.69620895,1019.428955,12.23224726,348.2416962,208.4586202,-27.16007042,23.16603851,22.83280373,0.266932964,0.316601515,0.802981138,-0.145061925,0.058167037,-0.02250489
14/04/2019 21:40,14.29511929,13.30208397,17.88862419,1019.685303,3.151368388,347.0173694,206.8626782,-27.29658127,21.77174568,23.73705292,0.240021452,0.500395477,0.878770828,-0.006395523,-0.143113062,0.002540585
14/04/2019 21:40,14.22263336,13.23333359,19.91563797,1019.836914,359.4721719,344.5970696,201.6512848,-28.43875504,21.31377983,23.53713608,-0.245848298,-0.083464161,1.079089642,-0.019834558,0.055112712,-0.157811537
14/04/2019 21:40,14.2588768,13.18958282,19.76966858,1019.647217,1.67166436,341.367203,197.2723003,-29.08299446,22.42073631,21.83324814,-0.205120414,0.020151785,1.219459057,-0.084586278,0.008992384,-0.065570891
14/04/2019 21:40,14.29511929,13.21666718,18.15071106,1019.503418,14.23311788,341.2529988,192.4313218,-28.87064362,23.57727623,22.93511963,-0.212278664,-0.034495305,1.060081244,-0.005173792,0.008686951,0.010787265
14/04/2019 21:40,14.2045126,13.20624924,18.09099388,1019.343262,11.07843877,341.1225678,193.0979756,-30.04825592,22.8762455,24.54768562,0.032002863,-0.46122393,1.009392381,-0.049766958,-0.118373021,-0.05854594
14/04/2019 21:40,14.02330017,13.11666679,15.49668121,1019.604004,355.7691388,339.786856,198.9565293,-30.84951973,22.29408455,24.79637527,-0.129835546,0.009226118,1.110039234,-0.055875607,-0.005668381,0.009260103
14/04/2019 21:40,14.22263336,13.12708282,17.22511673,1019.082764,348.9353557,338.2192234,201.5270164,-31.18271255,22.89581871,25.70112228,-0.382348418,-0.166204646,1.094929934,-0.02013999,0.059388768,-0.02250489
14/04/2019 21:40,14.16827011,13.13333321,17.10568619,1019.252441,350.8026346,337.036875,202.644367,-31.44569778,23.08569908,24.74134254,0.102312177,0.251047522,0.858056605,-0.024416048,0.093902655,-0.020366862
14/04/2019 21:40,14.24075508,13.11874962,15.91137314,1019.230469,343.5808673,337.3366998,203.3761945,-31.63573456,22.48408127,24.29106331,0.780918241,-0.07405635,0.595351398,-0.016780231,0.126278505,-0.026170082
14/04/2019 21:40,14.18639183,13.07708359,17.47061539,1018.954346,10.24260717,346.6137154,189.6746438,-32.72817993,22.52205086,24.21917343,-0.228816643,0.082549475,1.120761871,-0.005784658,-0.385931998,0.018423082
14/04/2019 21:40,14.27699757,13.14374924,18.84739304,1018.908691,22.81018684,345.6488676,184.4617204,-34.33301926,22.39541245,23.30488014,0.3469401,0.160728678,0.53199017,0.05927249,0.156821772,-0.060683966
14/04/2019 21:40,14.22263336,13.11666679,17.6497612,1019.686523,14.45339062,350.4818488,187.5523947,-34.10518265,22.69739532,23.30730438,-0.213759676,-0.162586257,0.631418526,0.085845128,0.228598431,-0.076261029
14/04/2019 21:40,14.2588768,13.13541603,22.04217911,1019.787109,8.793854896,353.4572692,187.9077558,-33.9690094,23.57658195,22.6813736,0.328999132,0.05948418,0.418183804,0.093786374,0.046560597,-0.02006143
14/04/2019 21:40,14.0595417,13.12291718,40.40805817,1020.00293,11.04832446,355.2592592,186.1833106,-35.91017151,24.04821587,23.89506912,-0.427766174,-0.377036095,1.041560292,-0.08702974,-0.091800377,-0.038998254
14/04/2019 21:40,14.18639183,13.08333397,20.16777039,1019.490967,359.972275,355.2237396,188.1225789,-36.80555344,23.17088699,26.23066902,-0.462076306,-0.335786462,1.411735892,-0.026554076,-0.181597576,-0.04113628
14/04/2019 21:40,14.02330017,13.01250076,28.09999847,1020.339355,1.181602556,352.281018,186.6351276,-37.8913002,22.79296494,25.92215538,0.505257308,-0.137016311,1.112963438,-0.072368972,0.001356568,0.005594911
14/04/2019 21:40,14.07766342,12.97083282,17.06587601,1018.968018,7.187799946,351.8567548,188.7843013,-37.52903366,21.98916626,26.20695496,-0.04936713,-0.336268902,1.286963105,-0.018001962,-0.023688907,-0.007233258
14/04/2019 21:40,14.00517845,12.98125076,13.00852966,1018.390869,3.791023501,348.0358599,192.9785019,-36.64201355,20.9277668,27.35106659,0.240021452,0.164856166,0.886812806,-0.08886233,-0.045985486,0.035221875
14/04/2019 21:40,14.04142094,13.01458359,15.0985775,1018.76001,1.925161815,348.8926354,194.0378506,-35.7040863,20.75741959,27.28861237,-0.546247303,-0.34953633,0.985997438,-0.030219268,0.019377092,-0.009371287
14/04/2019 21:40,14.18639183,13.01666641,14.35213184,1018.778564,3.20355829,352.7364575,196.1517122,-35.35836792,20.7552681,26.5027771,-0.367291421,0.174810648,0.702090621,0.052552968,-0.108599171,-0.039914548
14/04/2019 21:40,14.07766342,13.08124924,16.80379105,1018.462402,0.578186932,353.2301935,194.5015794,-35.20730591,21.15846825,25.82131767,-0.230544493,-0.031359363,0.832224727,-0.073896132,-0.149832591,-0.042968877
14/04/2019 21:40,14.16827011,13.08124924,18.11753464,1018.470947,357.1782081,344.1711288,190.3288803,-35.98535538,21.82649422,25.3159256,-0.379880071,-0.026293622,0.99160248,-0.066871181,-0.170296565,-0.018534265
14/04/2019 21:40,14.22263336,13.04583359,14.59431171,1018.592773,348.2764482,347.8586276,192.9344198,-35.95196915,21.38001442,24.40179253,0.129708573,0.115812063,1.178761721,0.033005282,0.051752951,-0.034111328
14/04/2019 21:40,14.18639183,13.04999924,16.39905167,1018.378906,351.8733854,356.0602581,193.2378168,-36.6325798,20.21559334,24.47788239,0.083886288,0.02743556,1.082501411,0.137463242,-0.017885687,0.012008997
14/04/2019 21:40,14.00517845,13.53958321,53.91042709,1021.675537,351.235217,353.8414267,189.3776808,-38.28269958,20.69468498,25.51993561,-0.221411586,0.015781516,0.956997514,-0.013420473,0.101843901,-0.072290406
14/04/2019 21:40,14.15014839,13.00833321,14.98578072,1021.502197,355.5557509,355.3924927,191.0483451,-39.81497955,19.61112976,26.00199318,-0.263867319,0.055842295,1.051064491,0.022620576,-0.089356922,-0.007233258
14/04/2019 21:40,14.13202667,13.10000038,18.73127747,1017.55957,356.9562097,352.7584507,188.825378,-39.8767128,19.11160469,26.26031113,-0.025917742,-0.120854177,0.928485036,-0.070230938,-0.00078146,-0.056407914
14/04/2019 21:40,14.11390591,13.60833359,59.3578186,1022.953857,359.2857862,355.9674862,191.3017997,-38.35922241,21.06493378,23.82306671,0.104494192,-0.028947107,0.986484826,0.05927249,0.034343291,0.049577214
14/04/2019 21:40,14.11390591,13.56458282,52.47061539,1022.402344,0.643514063,358.4764083,187.3266979,-37.97610855,24.28862381,20.38458824,-0.07948108,-0.079845771,0.885106981,-0.04090941,0.078631021,-0.09641958
14/04/2019 21:40,14.07766342,13.54583359,55.00852966,1024.406982,356.6344294,357.8257393,186.3550079,-37.06292725,25.03199005,21.26005745,-0.213019162,0.001213963,0.799081981,-0.018001962,0.016322767,-0.07015238
14/04/2019 21:40,14.04142094,13.52708244,55.01184845,1024.938721,0.380291806,3.826332591,182.357066,-35.28551483,22.07840538,19.43156242,0.02133524,-0.020986654,0.96016556,0.072711527,0.040451944,-0.095197849
14/04/2019 21:40,14.04142094,13.51250076,56.52796173,1025.14209,2.524745703,357.3516149,183.1515399,-36.65871048,20.05232048,20.33168793,-0.295955926,-0.02002175,0.827838182,-0.064427719,0.238066852,0.007122075
14/04/2019 21:41,13.95081425,13.48541641,56.25260925,1025.049561,0.074571992,354.2364665,183.5052344,-38.95515823,19.50740814,23.18159676,0.046064727,-0.026776075,0.867560804,-0.038465947,0.143688157,-0.040830847
14/04/2019 21:41,13.96893501,13.49374962,56.28578186,1024.960205,353.2841222,354.3562958,184.1392536,-39.07872391,19.99412346,22.71979713,-0.038753197,-0.049451306,1.051308274,0.031478122,-0.012387899,-0.003873499
14/04/2019 21:41,13.98705673,13.49583244,57.76208496,1024.945068,359.2585422,351.6025283,185.6114052,-39.56695175,20.45731735,21.24246407,0.093099229,-0.184779033,1.034493089,-0.052515849,-0.081721105,-0.006011529
14/04/2019 21:41,13.95081425,13.50416756,57.68910217,1025.012695,355.0214243,352.352974,180.7358523,-40.19683456,19.28650475,22.23322105,0.039276235,-0.105415717,0.99501425,-0.032662727,0.034954157,-0.061905697
14/04/2019 21:41,13.96893501,13.46458244,58.16018677,1025.20166,356.2241195,348.0367743,173.9483891,-40.21405411,17.75705338,21.32124329,-0.111322872,-0.062236279,1.031812429,-0.038771383,0.181867242,-0.091838092
14/04/2019 21:41,14.04142094,13.44791603,57.74549866,1025.115967,358.8386271,349.7394141,173.2811616,-42.67047882,16.49474716,21.20258713,-0.15131025,-0.123025209,0.934090078,0.048276916,0.045949731,-0.044496037
14/04/2019 21:41,14.02330017,12.89374924,29.49336433,1022.9729,0.097537069,346.9622609,162.7173178,-44.9774437,17.23861504,21.1540966,0.318816394,-0.018091943,0.941400945,-0.078172192,0.012352143,-0.230199069
14/04/2019 21:41,14.09578514,12.98541641,32.31990433,1017.308838,352.8171477,347.7427671,160.1209034,-46.49522781,18.85291481,21.38310242,0.014546755,0.018452236,0.925073266,0.00093486,-0.091494948,-0.097335882
14/04/2019 21:41,14.07766342,13.41458321,57.76540375,1018.424561,352.8607285,338.3040407,150.8524869,-49.12827301,17.81893158,23.05209923,-0.081949443,-0.037872463,0.955779076,-0.223252684,0.184005275,-0.175221205
14/04/2019 21:41,14.16827011,13.05833244,48.27393341,1017.720947,351.2697393,338.6280188,143.7287635,-51.81014633,15.63807201,26.32086754,-0.239677414,-0.106863067,1.110282779,-0.043658301,-0.2182495,-0.092754394
14/04/2019 21:41,14.27699757,13.01250076,28.63412285,1016.908203,354.0405157,336.0588021,147.677897,-52.64399338,15.15726566,28.42168427,0.043882709,-0.091183387,0.969426036,-0.039993111,0.038924783,0.001929719
14/04/2019 21:41,14.27699757,13.18124962,34.61231995,1016.062256,352.8567376,343.1425535,152.0444096,-51.48984146,16.17569923,28.85036659,0.165348127,-0.123266436,0.969669759,0.074238688,0.008381519,-0.05426988
14/04/2019 21:41,14.2045126,13.79166603,60.37962341,1020.25293,349.5381036,344.6275238,144.0143884,-50.65819168,17.24899483,29.09119034,0.266690493,-0.111205138,0.941644609,-0.038465947,0.033732425,-0.216149166
14/04/2019 21:41,14.13202667,13.68541718,59.6696701,1024.229248,345.9826896,338.2698266,145.5105003,-51.16505051,16.02088165,29.67925262,-0.090095013,-0.168375686,0.91166991,-0.137120679,0.032205265,-0.049077526
14/04/2019 21:41,14.07766342,13.29999924,23.77393341,1018.800537,349.5965385,327.595776,155.0398163,-52.36087036,12.55411243,30.54986191,0.452404082,-0.081534348,1.130509615,-0.16002813,-0.00078146,0.102111623
14/04/2019 21:41,14.0595417,13.68333244,59.02606583,1023.50708,349.8463023,323.2307558,179.9106798,-52.77709961,9.154857635,30.40283966,-0.147607714,-0.148112699,1.377130985,-0.107799158,-0.100963362,0.271321267
14/04/2019 21:41,14.0595417,13.63750076,57.09526062,1024.991943,355.6622993,329.2782121,197.2841165,-49.98263931,9.013142586,30.83420372,0.059884142,-0.371487886,1.12271142,0.029645527,-0.096076436,0.256355077
14/04/2019 21:41,14.15014839,13.02291679,9.199998856,1021.299316,351.8317904,340.2305587,209.4891865,-44.28805161,12.28803539,30.24046898,0.295784026,-0.025811171,0.865611255,0.212905109,0.131776288,0.162892714
14/04/2019 21:41,14.18639183,13.67291641,54.2919426,1019.625488,351.0361707,349.9131672,206.3906985,-39.62270737,17.82451248,28.94096184,0.375791162,-0.028947107,1.066904783,0.139601275,0.133303449,-0.082369685
14/04/2019 21:41,14.22263336,13.64583397,57.0819931,1024.910889,351.7100893,348.2753126,196.8757122,-38.16441345,21.86657143,26.97592545,0.368517816,0.295235783,0.845871806,-0.128874004,0.008686951,-0.125130251
14/04/2019 21:41,14.18639183,13.60000038,56.71042633,1025.425293,353.5717248,345.6894244,192.4111727,-38.89370346,22.97908401,26.43319702,0.081946716,0.036904473,0.921417773,0.005423639,0.051183451,-0.05816257
14/04/2019 21:41,13.93269348,13.56875038,58.54170609,1025.792725,350.2652925,349.112967,191.543083,-39.91189194,22.70283318,26.98796082,-0.094784886,0.154658869,0.878039718,-0.046194475,-0.155288994,-0.080459155
14/04/2019 21:41,14.09578514,13.54583359,58.27630615,1025.866455,352.3987815,345.2794038,190.0830071,-40.88275528,21.80937004,27.16330528,0.25335598,-0.074780032,1.110282779,-0.019316405,0.072258309,0.057290956
14/04/2019 21:41,14.00517845,13.53125,60.37298584,1025.731689,0.204642086,343.1011558,187.8932075,-41.53741837,20.81095123,28.16326332,0.254810661,0.032534208,0.964795828,-0.011680589,0.147394732,-0.017234601
14/04/2019 21:41,13.95081425,13.50833321,57.8815155,1026.035889,359.1035122,347.32955,187.8198376,-41.93634033,20.06566429,28.36012268,0.763219774,-0.086600095,0.716468692,-0.002517611,0.040798742,0.00628371
14/04/2019 21:41,14.00517845,13.49583244,58.75734711,1025.940674,0.307100299,350.3399764,187.6903782,-42.36177063,20.26515198,27.65283012,0.126556769,0.189621001,0.838804543,0.101940349,-0.011124802,0.000785923
14/04/2019 21:41,13.86020756,13.45833397,58.53839111,1026.031006,12.67639397,352.6375359,184.5832705,-42.52440643,20.21918869,28.08777809,0.006788486,-0.450127542,1.176081061,-0.080402926,0.007812021,0.006589143
14/04/2019 21:41,13.93269348,13.44583321,58.11374664,1025.955566,13.21133438,359.0526203,186.3491203,-42.91650391,19.64696312,27.95889473,0.317846596,-0.069473058,0.840023041,0.118433714,-0.076792814,0.026442265
14/04/2019 21:41,13.89645004,13.41875076,58.95639801,1026.05249,17.59622533,356.4857306,185.0725306,-44.00392914,19.27955818,27.71919441,0.016001431,-0.194669306,0.964795828,-0.019010972,-0.164757416,-0.044418104
14/04/2019 21:41,13.93269348,13.41666603,59.02606583,1025.989014,19.26439658,351.5927108,184.0704052,-44.53287888,19.18045998,27.72232056,-0.339892685,-0.158485427,1.370794773,-0.034893468,-0.074654788,-0.098174252
14/04/2019 21:41,13.87832928,13.39583397,59.42417145,1025.902344,19.73630972,353.6412962,184.0278532,-43.84342575,20.15040398,27.86212349,0.127526551,0.108285487,0.990384042,0.019778972,-0.085039496,-0.024259552
14/04/2019 21:41,13.7514801,13.36666679,59.26493073,1026.196777,17.75297476,358.8802414,182.0168952,-43.35081482,20.61000633,27.51696777,0.19419919,-0.341093421,0.999157071,0.064372137,0.150449052,-0.042280078
14/04/2019 21:41,13.78772259,13.33749962,59.38436127,1026.216553,14.34328968,359.0813243,183.0106058,-42.8910408,20.35866547,27.8303051,-0.138968468,-0.11337617,1.14318192,0.035661466,-0.184610531,-0.038614884
14/04/2019 21:41,13.80584335,13.32708359,59.51705933,1026.101807,15.78195462,357.9841924,182.1134468,-42.9380455,19.78683853,28.04449844,-0.413202882,-0.470149279,1.263080835,0.041770123,-0.010513937,-0.009293353
14/04/2019 21:41,13.95081425,13.33124924,60.08435822,1026.105713,17.74221209,3.965484035,181.4438833,-42.44552994,20.40806198,28.31469727,-0.163405195,-0.131468117,1.150492907,-0.011375156,0.058513835,0.010559766
14/04/2019 21:41,13.78772259,13.28125,59.20521545,1026.310303,11.35268538,0.973861819,182.3737999,-42.87627792,20.68158913,28.00170517,0.22668694,-0.312869996,0.983073056,-0.021759866,-0.076792814,-0.025481282
14/04/2019 21:41,13.6971159,13.25208282,58.89004517,1026.394043,7.640923233,357.5396015,178.4121226,-45.39073563,18.63750076,27.85798073,0.095766135,0.269256979,1.155366778,-0.019010972,-0.033726815,-0.066103823
14/04/2019 21:41,13.76960182,13.22916603,59.23506927,1026.348877,6.225551796,358.5311087,180.7164955,-45.92151642,17.71572685,28.05604172,0.21044305,-0.112893716,0.969913483,0.033828869,0.321185887,0.022166206
14/04/2019 21:41,13.71523762,13.19375038,58.34928894,1026.158691,8.078386604,359.1518527,178.4466014,-45.57144165,18.24557686,28.31178093,0.146922231,-0.28778252,1.137576818,0.012754021,-0.188886583,-0.025175851
14/04/2019 21:41,13.80584335,13.20416641,59.47393417,1025.744385,4.719286764,355.654649,177.3183498,-45.14909744,18.55141068,28.31946373,0.147164658,0.041274738,0.687225163,-0.096285425,-0.035559412,0.001702221
14/04/2019 21:41,13.60651016,13.20833397,59.33459473,1025.957764,16.0069957,349.9585308,178.6268774,-45.53683853,17.67047119,28.68788338,0.56005007,0.246191666,0.713788033,-0.004961072,0.279036164,0.002007654
14/04/2019 21:41,13.78772259,13.17916679,59.76919556,1026.514893,19.39958652,353.3861554,178.7124734,-45.10897064,17.79349136,28.51686478,0.592780232,-0.228199691,0.783485413,0.137065098,0.1910716,-0.056024544
14/04/2019 21:41,13.66087341,13.14166641,59.42085266,1026.751465,7.748975972,352.6946183,183.0085704,-44.58282089,18.56122017,29.16545105,0.017213661,0,0.745224953,-0.168672949,-0.261884987,-0.00654446
14/04/2019 21:41,13.64275169,13.14374924,59.67961884,1026.095459,6.541117208,355.1063769,184.3231769,-44.3151741,18.69889259,29.26556396,-0.363095254,-0.148112699,1.26332438,0.070480786,-0.089315549,-0.000130374
14/04/2019 21:41,13.58838844,13.11458397,59.26161194,1026.29126,359.4914376,353.8967479,185.7071098,-44.19631958,19.02935028,28.82945633,0.413370311,0.351806462,0.87072885,-0.021759866,0.072258309,-0.034644261
14/04/2019 21:41,13.58838844,13.08749962,59.30142212,1026.974609,350.5017793,351.7792868,186.8852765,-43.85871124,18.87632561,28.74439812,0.274448752,-0.018091943,1.009392381,-0.058106348,-0.146431446,0.018806448
14/04/2019 21:41,13.57026672,13.05833244,58.98957443,1026.5625,356.6207291,351.2316584,186.737922,-43.93819427,18.53109741,28.68511391,0.698486686,-0.02002175,0.886569142,-0.061160676,-0.202020183,-0.00074124
14/04/2019 21:41,13.552145,13.02499962,58.38578033,1026.535645,344.0600272,347.1149975,193.3014059,-43.48658371,17.86337852,28.89387131,0.030305739,-0.066095896,0.745956063,0.028636517,0.143729538,-0.080459155
14/04/2019 21:41,13.62463093,13.04999924,59.23506927,1026.478516,339.3404246,344.025072,199.183155,-42.72009659,17.61065102,28.80540466,0.094069012,0.083763435,1.011585593,-0.068796486,0.066760518,0.014835825
14/04/2019 21:41,13.60651016,13.03750038,58.87345886,1026.07251,332.7778456,344.2097518,201.6993011,-42.30075836,18.57704544,28.87686729,0.180622205,0.154416084,0.976249576,0.001453014,0.044158503,-0.018456332
14/04/2019 21:41,13.47966003,13.00208282,58.93981171,1026.358398,341.5119159,342.5827495,200.03977,-43.06581879,18.00048065,29.28899765,0.539684594,-0.116512105,0.961627781,-0.081013791,-0.276545763,-0.008071623
14/04/2019 21:41,13.58838844,12.99791718,58.14028168,1026.296875,356.7434495,342.2917937,197.5715855,-43.57851791,17.17890549,29.11400223,0.532168806,0.366373986,0.742544293,0.011837723,-0.023952972,-0.06243863
14/04/2019 21:41,13.51590347,12.97708321,56.91611481,1026.115967,1.105367613,344.6453147,199.2388484,-42.65808487,17.02750969,28.79278946,0.000727338,-0.542517066,0.929216087,0.019778972,0.094554886,0.040797599
14/04/2019 21:41,13.57026672,12.98125076,57.45023727,1025.918457,351.8360132,350.3583641,201.4695882,-40.97299576,18.75005341,28.64040184,0.205836594,-0.08732377,1.117349982,0.070786223,-0.030672491,-0.048999593
14/04/2019 21:41,13.49778175,12.92291641,56.14976501,1026.609131,354.6825347,348.9158879,204.9918894,-39.2046051,19.96225548,28.66129494,-0.121443145,-0.161862567,0.923854768,-0.023897894,-0.111612134,0.023387937
14/04/2019 21:42,13.42529678,12.89583397,56.67061615,1026.012695,352.483977,353.8406613,211.8515303,-38.79201126,20.13497162,28.53494835,-0.178709,0.021122955,0.888762414,0.060096078,-0.063659213,0.053320333
14/04/2019 21:42,13.552145,12.92291641,57.72559357,1026.208984,345.6417556,349.1787016,210.9495356,-39.18016052,20.55760765,27.80713081,-0.291759729,0.009711703,1.116862655,-0.06085524,-0.16170308,-0.007155325
14/04/2019 21:42,13.40717506,12.90833282,57.71232224,1026.633545,351.4067529,350.1873362,207.3561457,-40.4805603,20.03959084,27.97915077,-0.239924252,0.100273333,1.009148717,0.00206388,-0.006848745,-0.087789543
14/04/2019 21:42,13.38905334,12.88750076,56.96587753,1026.664551,343.0557914,348.3631753,208.2466111,-40.48704529,19.8440094,27.6062336,-0.248810336,0.373900563,0.989652932,-0.038558662,-0.132381544,0.02002818
14/04/2019 21:42,13.40717506,12.89374924,57.43364716,1026.663818,356.2390029,351.1991903,199.71759,-40.78999329,19.68737602,26.55868912,0.288995534,-0.063201189,1.182173371,0.061928675,-0.060910318,-0.052053921
14/04/2019 21:42,13.31656837,12.86874962,57.28767776,1026.932129,335.2519656,353.1928004,201.8820906,-41.7569809,18.40553093,26.50438499,-0.60968405,0.280910999,1.045459509,-0.037947796,-0.169338897,-0.03922575
14/04/2019 21:42,13.37093258,12.87916756,58.65118408,1027.03833,355.4850866,350.1433164,197.2908648,-42.94098663,17.29178429,27.12970734,0.329241544,-0.358220458,1.130509615,-0.005877369,-0.076792814,-0.032811664
14/04/2019 21:42,13.37093258,12.88750076,57.40379333,1026.70459,351.6705963,354.2924681,198.647272,-42.05639648,17.85747147,27.46693039,0.367063135,0.284552902,1.129291177,0.0377995,-0.087482952,-0.005933595
14/04/2019 21:42,13.46153927,12.89791679,57.49668121,1026.149414,345.5178013,353.49474,197.8440008,-41.64575577,19.02010345,27.05125427,0.187168241,-0.34977755,1.437080264,0.009394262,-0.104892612,0.026442265
14/04/2019 21:42,13.37093258,12.92291641,58.62464523,1026.341553,6.841356956,353.5915281,194.3797835,-42.30770874,19.00842285,26.72698975,-0.104658313,-0.418526947,1.134652495,0.003285609,-0.061521184,-0.021510659
14/04/2019 21:42,13.42529678,12.90416718,57.98104095,1026.759033,8.308219055,352.1323649,194.3232569,-42.6133194,18.96520424,26.7913475,-0.238936901,0.03107745,0.783729076,-0.008626263,-0.139406502,-0.001046672
14/04/2019 21:42,13.4434185,12.89583397,58.61801147,1027.008789,8.956017247,350.74111,194.3633501,-42.68426895,18.61357307,27.47354317,-0.033075977,-0.153419673,1.166576862,-0.086206146,0.365779042,-0.051748488
14/04/2019 21:42,13.47966003,12.87291718,57.80853271,1026.918457,357.0482477,352.2893576,193.5311598,-42.2580452,18.85561562,26.61016655,0.336272478,-0.076227389,0.664317608,0.098275155,0.049350858,0.023998803
14/04/2019 21:42,13.33469009,12.88958359,58.72417068,1026.465088,1.509048335,348.8472573,193.5699826,-41.40270996,19.50145531,26.26315308,-0.141930491,0.045887794,1.065442562,-0.036726065,-0.189497456,-0.052970216
14/04/2019 21:42,13.37093258,12.89791679,59.22180176,1026.723633,3.184711024,349.1145115,194.5703594,-41.81057358,20.73848343,26.54707718,0.64320904,0.235023201,0.761796355,0.013059454,-0.108863242,-0.005322729
14/04/2019 21:42,13.4434185,12.91875076,59.83222961,1026.647217,358.9991969,349.4852277,194.6420491,-41.88045883,21.00597572,26.31934738,-0.433937043,-0.120371722,1.20873642,0.048184209,0.228639811,-0.032811664
14/04/2019 21:42,13.35281181,12.90416718,60.01137543,1026.66626,9.102141461,351.6848218,192.2195859,-41.39612961,21.50139236,26.17279816,0.099887721,-0.186226383,0.714031756,-0.033671737,0.215200767,-0.031895369
14/04/2019 21:42,13.28032589,12.87083244,59.67961884,1026.831543,356.7929991,351.8220651,193.3145745,-42.32995605,20.70477486,26.21958351,-0.477873802,-0.121819079,0.898266554,-0.003433907,-0.218208119,-0.039836615
14/04/2019 21:42,13.35281181,12.875,59.49052048,1026.946533,359.1094555,347.1096743,191.9461734,-43.34330368,19.85758591,26.61634636,-0.471702904,-0.265348464,1.060081244,-0.028784815,0.115324304,-0.031895369
14/04/2019 21:42,13.33469009,12.87083244,59.82227325,1026.605469,359.4767086,346.9097435,192.6360225,-44.29845428,19.1422081,26.76009941,-0.58277899,-0.037148785,0.79420805,0.010005128,-0.133297846,-0.047472432
14/04/2019 21:42,13.29844761,12.86249924,60.04123306,1026.984131,355.2494399,345.2420512,194.0057623,-44.93185425,19.27455521,27.23876381,-0.441095322,-0.321071655,1.207761526,-0.039169524,-0.026396435,-0.079237424
14/04/2019 21:42,13.33469009,12.83749962,60.61516571,1027.060059,358.3537808,345.5079044,191.8336529,-45.30295944,19.44642448,26.98929024,0.077582695,-0.327584773,1.283794999,-0.013207752,0.036522686,-0.046250701
14/04/2019 21:42,13.26220512,12.82708359,60.40947723,1027.015381,357.5735121,345.6559248,190.0301688,-46.38545227,18.80155373,26.97395134,0.114676915,-0.194428071,0.724023342,-0.005877369,0.001703368,-0.024870418
14/04/2019 21:42,13.26220512,12.83124924,61.35497665,1026.453125,8.066363764,347.1713346,185.2485582,-47.85968781,17.24860191,27.99539566,0.149104238,0.175539032,0.442309767,0.058263481,0.094860323,-0.016318304
14/04/2019 21:42,13.28032589,12.81875038,61.5639801,1026.100098,0.062136058,344.5636803,185.4853746,-49.32320404,14.78516197,27.89629173,-0.096265905,-0.083464161,1.099803925,-0.095369123,0.043242205,-0.083513483
14/04/2019 21:42,13.38905334,12.82708359,60.85071182,1026.071533,353.9495324,346.3337016,185.0343635,-50.40363693,13.22510433,27.58573914,-0.402588964,-0.301049918,0.746199787,-0.025730489,-0.001656391,-0.020288927
14/04/2019 21:42,13.35281181,12.82500076,60.97677612,1025.604492,346.9532373,352.7964573,181.0930302,-49.57439423,13.08423042,27.04558182,-0.024683565,-0.014714779,0.903384209,0.039937526,0.115018874,-0.14246197
14/04/2019 21:42,13.29844761,12.80833244,59.60995483,1025.455811,358.5744183,345.0517912,176.5024974,-48.95215607,13.18702507,27.90866089,-0.1211963,0.003884681,1.113450885,-0.149430692,-0.048082151,-0.03342253
14/04/2019 21:42,13.38905334,12.85416603,61.60379028,1025.448242,0.266388984,345.9125897,180.3717075,-49.50962067,12.7428751,28.16487694,-0.268310368,-0.086841322,1.026938558,-0.00832083,-0.049303882,-0.059384301
14/04/2019 21:42,13.33469009,12.84791756,61.57061768,1025.659424,339.0119505,343.2271676,184.7708275,-48.40737534,15.89135647,28.32774353,0.417249411,-0.265348464,0.814434886,0.028025651,-0.170255199,-0.044723537
14/04/2019 21:42,13.35281181,12.83333397,58.85687256,1025.26416,339.4802044,333.925647,187.2848835,-46.68478775,17.21348381,27.82229042,0.599811196,-0.138463661,0.979173958,-0.130799308,-0.009903071,0.020639045
14/04/2019 21:42,13.31656837,12.81666756,59.54360199,1025.487793,340.7514563,338.5233632,187.0339424,-46.79513931,16.86476898,27.56588745,0.299905598,-0.099385075,1.082013965,0.035661466,0.039271578,-0.059689738
14/04/2019 21:42,13.40717506,12.82708359,59.49715424,1025.170898,343.5664265,338.4295693,185.0002809,-47.59765244,15.38953686,26.70592117,1.192106485,-0.14184083,1.162677646,0.031690843,0.949460804,-0.02761931
14/04/2019 21:42,13.37093258,12.81666756,57.01232147,1025.414551,296.3224264,319.1719363,219.8636564,-46.60318756,16.6274929,26.01915359,-0.070594996,0.014567555,1.415391207,0.006645368,0.28545025,-0.104893766
14/04/2019 21:42,13.38905334,12.87291718,64.65592194,1025.800293,306.2620524,328.5683608,208.2978922,-45.18054199,18.82588768,23.07510567,0.187168241,-0.089977264,0.932384133,-0.080097497,0.096387483,-0.075266801
14/04/2019 21:42,13.26220512,12.37083244,37.30947876,1025.447021,309.0296177,325.8969679,210.7213936,-45.55105591,17.55138969,21.22816849,0.00533381,-0.059341572,1.116131544,-0.107280999,-0.148874909,-0.104282901
14/04/2019 21:42,13.31656837,12.79166603,57.72891235,1023.847168,311.5255362,329.3537745,205.2678154,-47.08673096,13.5391016,22.63544846,0.210200608,0.028892318,0.844409585,-0.079181202,0.365473598,-0.093287326
14/04/2019 21:42,13.35281181,12.76458359,57.03886414,1025.581543,320.2762926,341.6879043,198.0948463,-48.41671753,11.12105846,22.60949707,0.433493316,-0.019298071,1.12271142,0.03352344,0.040493309,-0.045334402
14/04/2019 21:42,13.49778175,12.73958397,46.24691772,1025.37207,319.4591117,338.9953446,196.3970389,-49.24126816,11.90745926,23.21259499,-0.160936847,-0.031359363,0.893392682,-0.103310376,-0.10214372,-0.010820516
14/04/2019 21:42,13.46153927,12.77291679,59.31800842,1025.52124,317.9947054,343.1849605,190.5408893,-49.80196381,13.95796776,23.92820358,0.202684775,-0.104933262,1.050089717,0.000842148,0.14800559,-0.05816257
14/04/2019 21:42,13.31656837,12.75208282,58.65782166,1025.821777,320.9098916,339.9131291,190.7746867,-48.33234024,16.35710335,24.64159775,0.594719827,-0.247980222,0.620939553,-0.126828685,-0.041362632,-0.049610458
14/04/2019 21:42,13.35281181,12.77708244,61.29526138,1025.625244,321.6180183,341.1599067,193.3375923,-46.65743256,17.47976685,27.29754639,0.128981218,0.168012455,1.005005836,0.021916999,-0.156816155,0.042324759
14/04/2019 21:42,13.28032589,12.72916603,59.06256104,1025.682861,327.5516564,343.4537096,193.1704848,-46.07741928,17.5243206,28.55429649,-0.028632935,-0.192739487,1.186803699,0.01031056,-0.030367058,-0.011125949
14/04/2019 21:42,13.31656837,12.74166679,60.44597244,1025.01123,325.1612507,352.4887915,191.233088,-46.56920242,17.40439415,28.97954369,0.095038801,0.069438681,0.872678399,0.01947354,-0.023952972,-0.022121524
14/04/2019 21:42,13.46153927,12.43541718,42.70047379,1022.269043,326.5336747,352.3175509,186.0856526,-47.70030594,16.5618515,28.57901382,-0.203886256,0.047344554,0.976493299,-0.135075375,-0.004405284,-0.061522335
14/04/2019 21:42,13.40717506,12.79166603,61.47772598,1024.713135,326.1167532,354.8306571,183.8826433,-48.16212845,16.01544571,28.72657776,0.147649571,0.366616786,1.006468058,0.020695271,-0.065186374,-0.059689738
14/04/2019 21:42,13.40717506,12.46041679,42.10995102,1024.811279,327.0908474,349.6975689,186.7109017,-48.05089569,15.89209557,28.26638031,0.558837831,-0.024846269,0.641653836,-0.021759866,0.104328729,-0.05235935
14/04/2019 21:42,13.38905334,12.79583359,62.07488251,1024.964111,324.317415,353.4283514,183.4775175,-48.28982925,16.23498344,27.8090477,0.181107104,-0.177783489,1.29061842,0.05673632,-0.063353777,-0.042280078
14/04/2019 21:42,13.46153927,12.79375076,55.46966553,1024.745361,316.4984022,355.4084429,180.8947634,-48.5260582,15.80884075,26.37951469,-0.014069632,-0.264142364,0.86731708,0.065593868,-0.159565046,-0.054497384
14/04/2019 21:42,13.58838844,12.81458282,58.80047607,1024.659668,322.1286091,353.3696442,182.8212729,-49.14878845,15.54853916,26.82802773,0.588416278,0.39769426,0.972106695,-0.042223848,-0.047776718,0.011476064
14/04/2019 21:42,13.47966003,12.81041718,53.68151855,1024.682861,328.4471386,355.6356299,181.8535854,-49.40084457,15.42532253,26.86925316,0.280025035,0.308832169,0.670653701,-0.032755438,0.031635765,-0.030062772
14/04/2019 21:42,13.4434185,12.81666756,58.03744125,1025.904297,329.1930943,355.3781822,181.2313278,-49.37420273,15.26065445,26.84550476,0.232990533,0.014081969,0.973325253,-0.017483808,0.064011626,-0.025786715
14/04/2019 21:42,13.37093258,12.81041718,58.49858093,1025.615723,337.3412299,0.203011485,177.2278225,-48.20266724,15.80053902,27.35508156,0.06109637,-0.025328718,1.094442487,-0.021149,-0.13513045,-0.034033395
14/04/2019 21:42,13.42529678,12.83333397,62.31374359,1025.748047,342.3332137,357.8585662,179.9729984,-48.03873444,16.67460442,27.79906273,-0.078000069,-0.153660893,0.72183007,0.129123852,0.023999948,0.045379087
14/04/2019 21:42,13.35281181,12.84375,61.26208496,1026.096191,339.4149505,359.9921742,176.3751417,-48.05755234,16.30102921,28.21258736,-0.152297601,0.383126676,0.914350629,-0.019927269,0.130290508,-0.039836615
14/04/2019 21:43,13.51590347,12.82500076,59.2682457,1025.822021,331.1736135,356.0328801,176.7076762,-48.8253479,15.12613869,28.35226059,-0.331993937,-0.150766194,1.034980536,-0.004044773,-0.046249554,-0.038614884
14/04/2019 21:43,13.31656837,12.80833244,62.27061462,1026.549805,333.5406924,351.4169777,181.2773223,-48.80059433,14.84128666,28.69489479,-0.329278737,-0.450127542,1.145862579,-0.031228278,-0.031894222,0.010865198
14/04/2019 21:43,13.28032589,12.8125,61.93554688,1026.056396,331.4273004,351.6817269,181.5687392,-47.82549667,14.90184116,29.4281292,0.490468085,-0.10396836,0.975762188,0.059790649,0.336762935,0.001091355
14/04/2019 21:43,13.29844761,12.79375076,62.26066589,1026.354492,336.0662778,352.9238719,181.0779081,-47.05212784,15.68230438,28.93805885,-0.007651905,0.144461587,0.825888634,0.03352344,-0.073433056,-0.008987921
14/04/2019 21:43,13.28032589,12.77916718,62.57250977,1026.381104,340.005072,350.8344744,182.6089633,-46.93743515,16.0821209,28.83223534,-0.001974685,0.002427926,0.876333892,0.001453014,0.014531538,0.053931199
14/04/2019 21:43,13.28032589,12.76874924,62.19763184,1026.169922,347.0827283,349.1705268,181.4736629,-46.50635147,15.91562176,28.19361687,-0.020734195,0.134749874,0.82905668,-0.080097497,-0.162619382,-0.019983495
14/04/2019 21:43,13.29844761,12.74791718,62.16114044,1026.385742,333.5134707,345.8760089,186.0874421,-47.11283493,14.87422943,27.53540421,0.17868264,-0.168858126,1.37737453,-0.032450005,-0.132992417,-0.019983495
14/04/2019 21:43,13.28032589,12.73541641,63.05023956,1026.720703,340.8708309,349.3485778,185.3400008,-51.96697235,11.85480976,31.52620125,-0.051094979,-0.176336125,1.078602314,0.040548392,0.008422886,-0.006849892
14/04/2019 21:43,13.11723423,12.70833397,62.39004517,1026.240967,351.2937551,344.7628469,183.448216,-50.90146255,10.34361172,32.89573288,0.096251033,0.03107745,0.928485036,-0.089871339,0.01819673,-0.014180276
14/04/2019 21:43,12.91790009,12.64791679,62.04833984,1026.644775,350.5769737,349.1344762,183.5154387,-45.21055603,10.20198536,27.80482292,0.22086823,0.055113915,0.997451186,0.002369313,0.0908897,-0.040447481
14/04/2019 21:43,13.08099174,12.63541603,61.58388519,1026.067139,357.4648871,351.6014551,184.4989313,-44.78842545,8.807476044,30.108778,0.328999132,-0.363527417,0.99501425,0.034439735,0.003230531,0.041103028
14/04/2019 21:43,13.00850677,12.62291718,62.10473633,1026.119873,7.364857232,351.4642306,181.8973532,-45.9489212,8.501616478,34.72805405,0.096008584,0.07162381,0.99428314,-0.023592461,-0.084428631,0.04354649
14/04/2019 21:43,13.08099174,12.61041641,61.81279755,1026.074219,8.825608445,350.3042477,180.873221,-43.36039734,12.6773777,36.0145607,0.115161806,-0.125437453,0.854644895,-0.036115199,0.005063127,-0.01356941
14/04/2019 21:43,13.06287003,12.59791756,61.20568848,1026.1521,9.936936572,353.9664773,185.2697865,-44.71766281,13.50268364,33.7338829,0.507924199,-0.307563037,0.956022739,0.026193058,0.117462337,-0.016929168
14/04/2019 21:43,13.06287003,12.55833244,61.25213242,1026.400146,6.61241115,351.2054211,187.5783084,-44.11027527,10.69467068,33.79107285,-0.331253439,0.05681346,1.106139898,-0.067880191,0.099441811,0.012697795
14/04/2019 21:43,13.09911346,12.54375076,62.13791656,1026.242188,17.62202295,352.4690488,186.8163189,-40.59896469,10.06792831,26.7766571,-0.220177397,-0.099867523,0.910695136,0.042686418,-0.064880937,-0.010820516
14/04/2019 21:43,12.95414257,12.52916718,61.22227478,1025.897949,12.39466147,352.3638383,189.0656095,-41.94246674,10.6193285,23.50534821,-0.154519111,-0.059824023,0.871216238,0.016419211,0.159917474,-0.026703013
14/04/2019 21:43,13.00850677,12.5,60.95023727,1026.260254,17.70071527,352.390651,187.0609899,-41.17007065,12.05849552,24.38419724,0.136012167,-0.023157686,1.108577013,-0.001906745,0.019418459,-0.05816257
14/04/2019 21:43,12.91790009,12.46041679,60.89715576,1026.536621,16.43582571,350.5525404,188.8044503,-42.14906311,11.42292213,24.73169899,0.120738067,-0.159691542,0.981854618,0.005423639,-0.005932448,0.01208693
14/04/2019 21:43,12.97226429,12.45000076,59.98151398,1025.800537,2.725596166,351.9507664,190.6850336,-42.20397568,10.45505333,24.25737381,0.132617921,-0.089012355,1.149030685,0.033218004,-0.06182662,-0.011431382
14/04/2019 21:43,12.91790009,12.41458321,59.88530731,1026.152344,353.6148724,353.1387049,190.2987045,-42.69079971,12.80632305,32.92274857,-0.618323326,-0.412013829,0.817115545,0.065593868,-0.042278931,-0.059384301
14/04/2019 21:43,12.91790009,12.36458397,59.21848297,1026.020264,343.3523616,350.4265226,191.6417656,-41.854702,15.89757538,39.74872208,-0.061215241,-0.057894215,0.864636421,-0.001906745,-0.011735667,-0.002879268
14/04/2019 21:43,12.80917263,12.34583282,59.21184921,1025.458008,353.2631189,3.648270413,189.4715686,-41.58322144,13.5497303,34.74034119,0.169954583,-0.04824518,1.027182221,0.134316206,-0.053579938,-0.001352105
14/04/2019 21:43,12.79105091,12.34791756,58.9928894,1025.535156,357.4447315,358.2849299,189.222253,-42.72598267,11.74707031,29.72130585,-0.256709069,-0.106863067,1.084694624,-0.067880191,-0.122913137,0.000175057
14/04/2019 21:43,12.79105091,12.33333397,59.49383926,1025.313721,358.5355451,1.215665136,188.8024286,-41.58921432,11.76983643,23.50797272,0.267175406,0.108285487,0.866098642,0.047573343,0.032246631,-0.022426955
14/04/2019 21:43,12.80917263,12.32291603,60.8009491,1025.02832,357.4951419,358.4123199,186.5570859,-39.86341095,15.44825268,22.13908768,-0.191791296,-0.03063569,1.172425628,-0.117665708,-0.031588789,-0.041058347
14/04/2019 21:43,12.8272934,12.30833244,58.75734711,1025.312744,334.1390716,356.2493959,186.1733658,-40.81901932,16.22596359,25.05796623,0.258447349,0.003641889,0.984535277,-0.050165102,-0.149791211,-0.065492958
14/04/2019 21:43,12.84541512,12.28125,58.57820129,1024.753418,284.2666576,331.2593221,217.3674955,-36.38727951,16.48761177,26.4038372,-0.375683844,-0.160173997,1.556979179,-0.022676162,-0.602442324,-0.008071623
14/04/2019 21:43,12.77293015,12.27083397,58.33602142,1024.811279,298.3029149,351.3321988,199.2317723,-36.08332062,17.34176254,26.43748093,0.529016972,0.166555703,1.016459584,-0.018400107,0.4112885,0.024915101
14/04/2019 21:43,12.70044422,12.27083397,58.30947876,1024.807129,310.3464065,357.775296,191.4473237,-38.11538696,17.44404793,27.16139793,0.104979083,-0.163068697,1.076652646,0.013059454,-0.147653177,0.005367413
14/04/2019 21:43,12.77293015,12.26874924,58.02748871,1023.971436,303.9198063,356.3254231,195.8936949,-38.61673737,17.58363152,27.58167839,-0.005924055,-0.013267424,1.0912745,0.021916999,0.01361524,0.003840249
14/04/2019 21:43,12.80917263,12.24583244,56.15639877,1024.102295,329.0632626,359.6719452,194.9381515,-38.40022278,17.83848381,27.64395332,0.202442348,-0.188638657,1.088106513,0.06834276,0.411593944,0.001702221
14/04/2019 21:43,12.73668671,12.25,56.56445313,1024.142578,339.7738496,359.7871101,194.596724,-38.0520134,17.94729424,26.90835953,0.666968703,-0.067784473,1.149030685,0.006950801,0.417091727,-0.025175851
14/04/2019 21:43,12.79105091,12.31666756,64.78199005,1024.0354,336.0160605,355.8986033,196.3843484,-37.53567886,17.92601776,26.16056061,0.07540068,-0.214691058,1.041316628,0.0377995,-0.277767479,-0.035865992
14/04/2019 21:43,12.73668671,12.03750038,54.57725143,1021.966553,349.3239362,355.0866432,195.5686462,-37.28145599,17.78422165,25.81247711,0.088492759,-0.1741651,1.330097318,-0.071239948,-0.349238724,0.04934971
14/04/2019 21:43,12.80917263,11.91041756,55.23080444,1021.633789,351.343653,350.8509326,193.6991688,-38.4983902,17.24845505,25.68505096,-0.330019265,-0.303220958,0.479595423,0.025582192,0.222225726,-0.019067198
14/04/2019 21:43,12.80917263,11.92499924,34.62559128,1018.552734,340.7332863,357.6690872,196.5144772,-38.76001358,17.16231918,25.85957718,-0.295709103,-0.258594185,1.077383757,0.045740746,-0.261884987,-0.006239027
14/04/2019 21:43,12.80917263,12.32083321,55.94407654,1020.144775,327.3069546,356.985746,195.8528231,-38.66423798,17.74749947,25.89175606,-0.153531775,-0.000723678,1.161702871,-0.081013791,0.066455089,0.021249907
14/04/2019 21:43,12.73668671,12.08124924,54.89905167,1021.389404,315.6087598,356.8918787,195.8049434,-37.99409103,17.65269279,25.791399,0.125586987,-0.304427087,1.198257327,-0.018705539,0.207564965,-0.019372631
14/04/2019 21:43,12.8272934,11.95000076,37.12369537,1021.042236,318.9384293,353.946671,195.8119649,-37.63051605,17.59399033,26.1844368,-0.484044731,-0.104933262,0.964795828,-0.013818617,-0.309837908,-0.025481282
14/04/2019 21:43,12.9360218,11.98749924,27.4398098,1017.936279,321.5937063,355.8458661,193.2112747,-38.07630157,17.2199192,25.84574127,0.333848029,0.055113915,0.975518465,0.032607138,-0.019676916,0.02155534
14/04/2019 21:43,12.97226429,12.05624962,28.6805687,1017.087158,327.6446187,353.0641982,193.7502313,-37.76211929,17.043993,25.61501122,0.07540068,0.04151753,1.179249048,0.029247383,-0.035559412,-0.027924743
14/04/2019 21:43,13.11723423,12.04999924,25.10426521,1016.986816,322.9289946,350.3218508,195.4310043,-38.20173264,17.43901443,26.0527668,-0.19574067,0.02840673,0.884863257,0.025582192,-0.064270079,-0.038614884
14/04/2019 21:43,12.89977837,12.01666641,23.85355377,1017.251465,334.0395114,346.344892,195.4024267,-38.29990768,17.05795288,26.2579155,0.752794564,0.234294832,1.419534087,-0.190664098,-0.192857206,0.011781497
14/04/2019 21:43,13.00850677,12.36666679,54.74976349,1017.597168,334.3425003,351.5591327,193.4926375,-37.89903641,17.25764084,25.94553566,0.267902732,-0.065854669,1.015484691,-0.065131299,0.046296529,-0.084735215
14/04/2019 21:43,12.95414257,12.05624962,27.42654037,1018.620605,349.1538082,355.1556281,186.773234,-37.83797836,17.43387413,25.72263527,-0.260164768,0.198361546,0.98404789,0.010921424,0.013004376,-0.081680886
14/04/2019 21:43,12.89977837,12.03958321,23.90995216,1016.931396,358.889045,353.945725,186.589502,-37.8037796,16.23254967,26.1461792,0.29626891,0.296449721,1.043022513,-0.075821437,-0.058466859,-0.02059436
14/04/2019 21:43,12.99038506,12.07500076,24.66634941,1016.350342,355.6656973,355.9246963,185.9700584,-37.60685349,16.32825851,26.64949226,-0.343595237,-0.179954529,0.584141374,0.064983003,0.599129617,-0.050526757
14/04/2019 21:43,13.02662754,12.09791756,25.87393188,1016.123291,13.11682249,356.3459393,189.1548254,-37.76524734,17.03792763,26.52939034,0.18910782,-0.050898664,0.863417923,0.019168107,0.416175425,-0.096341655
14/04/2019 21:43,13.04474926,12.09583282,25.55213165,1016.628418,7.185609163,356.7098891,191.1790339,-37.31552505,17.26898193,26.21760559,0.238809228,0.186464697,0.589502692,-0.00373934,0.265902579,-0.043501809
14/04/2019 21:43,12.9360218,12.09583282,25.49573326,1016.428955,4.953848266,357.4953513,188.0138969,-37.18956757,17.82250214,25.95020294,0.246809945,0.065554,0.894123733,0.028636517,0.143729538,-0.005322729
14/04/2019 21:43,13.00850677,12.11249924,26.09288979,1015.939209,359.7134306,355.9465256,191.2334978,-36.59259033,18.45891762,26.62055588,0.197593421,-0.076468609,0.958459735,-0.07246168,-0.004405284,-0.042890944
14/04/2019 21:43,13.00850677,12.11666679,27.19431305,1016.244141,357.8106691,354.0410493,192.1138136,-36.39810181,18.22160339,26.38865852,0.118798494,-0.04052595,1.069829106,-0.030006547,0.27201122,-0.002573837
14/04/2019 21:43,13.02662754,12.16458321,27.45971489,1016.404297,9.884113597,353.3981236,191.6275861,-36.34327698,18.53206825,25.89790726,0.016243877,0.099302165,0.892174125,-0.020538135,0.10982652,0.056680091
14/04/2019 21:43,13.08099174,12.18333244,25.87393188,1016.57666,10.69546835,353.1714885,191.3654161,-36.43664169,18.19709969,26.37379837,0.271296978,0.370258689,0.561721265,0.030469114,0.040493309,-0.026703013
14/04/2019 21:43,13.15347672,12.25208282,28.0037899,1016.452393,7.696293015,355.7505018,192.2475077,-36.58600616,17.79098511,26.64756775,-0.305335701,0.087890908,0.603149712,0.082392663,0.57683301,-0.040447481
14/04/2019 21:44,13.13535595,12.25833321,29.45687103,1017.104248,4.449872086,0.060604956,194.947058,-36.03343582,18.47545624,26.55038834,-0.505272567,0.429500073,0.634586573,-0.025425056,0.067982249,-0.054497384
14/04/2019 21:44,13.15347672,12.28125,30.89668274,1016.787109,0.199634223,0.954063662,196.8345945,-35.76391983,18.74291611,25.89242363,0.060853925,0.145189956,0.627275705,-0.001295879,-0.205685377,-0.019983495
14/04/2019 21:44,13.13535595,12.28958321,31.63649178,1016.984863,20.53974658,354.2930226,197.4621249,-36.01551437,18.61162376,26.21080971,-0.078493737,0.086434156,0.940913498,-0.031533711,0.019723892,-0.002268404
14/04/2019 21:44,13.15347672,12.27291679,30.61800957,1017.049072,30.96515779,0.449472711,195.1429069,-36.13076782,18.31097603,26.16379738,-0.116753258,-0.242673248,1.452433228,-0.095674559,0.233221292,-0.01356941
14/04/2019 21:44,13.15347672,12.28333282,31.11895752,1017.181641,41.39067316,2.060257834,193.6566577,-36.07289886,18.27445412,25.75142288,-0.311753422,-0.396334141,0.937258065,-0.0492488,-0.249667689,-0.051137622
14/04/2019 21:44,13.26220512,12.27916718,30.77061462,1016.947021,16.17103806,358.9954407,194.7541462,-35.86155701,17.93589783,25.51354599,0.182804212,-0.052346017,0.785678625,0.120571733,-0.057855994,-0.081070021
14/04/2019 21:44,13.22596169,12.30208397,32.96682358,1017.340576,13.71203591,0.535397932,197.1286888,-35.21605301,18.3580246,25.47219276,0.148861781,0.402307302,0.860980928,-0.102699511,0.066455089,0.009338036
14/04/2019 21:44,13.18972015,12.30624962,31.51042557,1017.22583,19.34149747,358.9158255,195.4812608,-35.08535385,17.49503517,26.30937195,-0.042949405,-0.10396836,0.765939176,-0.073683411,0.1171569,0.005367413
14/04/2019 21:44,13.13535595,12.30416679,31.08246422,1017.306885,5.181662396,0.915575012,197.471291,-35.34407043,17.19615746,26.47071648,0.208018601,-0.088047452,0.680645287,-0.002517611,0.243300572,-0.069158144
14/04/2019 21:44,13.17159843,12.32500076,31.90189552,1017.287842,12.57092987,352.4081602,197.2414962,-35.08830643,17.28363609,26.24398232,0.29238978,-0.321071655,0.855375946,0.04940594,0.127847046,-0.004711865
14/04/2019 21:44,13.17159843,12.31666756,30.23980904,1017.255615,23.85000288,351.9135854,194.5919565,-34.33395767,17.72306442,25.61100006,0.048004292,0.155387253,0.821258366,0.086363286,0.022167355,0.02949659
14/04/2019 21:44,13.13535595,12.3125,29.66919327,1017.67627,26.34281361,351.8098698,197.2800184,-34.62317276,18.14823151,26.1239624,0.136981949,0.208558813,1.285988331,-0.003128475,-0.24294816,-0.02761931
14/04/2019 21:44,13.28032589,12.32500076,27.79810333,1017.745605,48.6036637,351.9881599,187.9032069,-35.35252762,17.21303368,26.49386406,1.027485728,0.058027428,1.41904676,0.015197484,0.148921892,0.082030997
14/04/2019 21:44,13.26220512,12.35000038,28.94928932,1017.43042,41.36562344,355.1100486,184.7869877,-34.6930275,18.00336075,26.59670067,-0.050107639,-0.244603053,1.085182071,0.096137129,0.030414034,0.035605244
14/04/2019 21:44,13.22596169,12.36458397,28.6805687,1017.232178,30.7871494,352.6474491,184.1278745,-34.16009903,19.05592728,25.45129013,-0.264114141,-0.123507656,0.833199501,-0.01534578,0.004146829,-0.026092147
14/04/2019 21:44,13.28032589,12.31666756,27.07819748,1018.694336,10.11659958,349.7648147,185.7957657,-34.4522171,19.17722511,24.93576241,0.324392617,0.15101698,1.281358004,-0.0782649,-0.016317155,-0.077404827
14/04/2019 21:44,13.37093258,12.34583282,26.17582893,1017.937988,20.22413037,347.9652212,182.3645518,-34.70765305,18.04737854,25.16902924,0.132375464,-0.235677704,0.827838182,-0.018400107,0.066455089,-0.002573837
14/04/2019 21:44,13.31656837,12.35625076,25.71469116,1017.263184,22.03423295,347.3579235,180.4390122,-35.18464661,18.44120979,25.86359596,0.288025737,-0.03883737,0.916056454,0.076284006,-0.175447553,-0.034338828
14/04/2019 21:44,13.26220512,12.35416603,23.92654037,1017.058838,31.98953932,346.3082591,179.6198777,-35.20505905,18.4820385,26.27964401,0.217716426,-0.208660409,0.982098341,-0.058717214,-0.018760618,0.047211677
14/04/2019 21:44,13.33469009,12.35000038,23.72417068,1017.243896,34.73238278,342.735645,175.5781542,-35.22932434,18.63204575,25.33421135,0.160499185,-0.153660893,1.055938363,-0.008015397,0.183741212,-0.071907043
14/04/2019 21:44,13.22596169,12.33333397,21.61421776,1017.252441,38.88688974,346.714891,181.3073615,-35.73913956,18.76652718,25.81382561,0.067642413,-0.028464656,1.454870105,0.203038543,-0.537690639,-0.03922575
14/04/2019 21:44,13.31656837,12.35000038,22.64265251,1017.390137,41.0628275,346.0381943,183.5105756,-36.80773926,18.45129967,25.48705482,0.149831578,-0.180678189,0.755460262,0.003285609,-0.003488986,-0.009904219
14/04/2019 21:44,13.28032589,12.31666756,19.69668198,1018.155029,38.51847958,345.0073079,183.6631347,-37.35477066,18.0962677,25.12447357,-0.038506363,0.015538725,1.095904708,-0.054441154,-0.001350958,-0.034949694
14/04/2019 21:44,13.33469009,12.28125,19.20568657,1018.972656,31.68720441,342.9686655,183.1289046,-36.74087906,17.89745903,24.58991623,-0.054303844,0.174810648,0.98745966,-0.056884617,0.071952872,0.013919527
14/04/2019 21:44,13.29844761,12.29791641,20.01848221,1018.276123,25.48891531,344.150237,185.2341602,-35.39986801,17.99551392,24.90323257,-0.485525727,-0.227717251,0.909476638,-0.002517611,-0.093897037,-0.018456332
14/04/2019 21:44,13.38905334,12.50625038,23.56824493,1018.633545,9.143345431,343.5339439,189.3890053,-34.90596008,18.90332985,24.90897942,0.176743075,0.190834969,0.976736963,0.022833297,-0.087177522,0.000175057
14/04/2019 21:44,13.28032589,12.31458282,21.62085342,1019.64502,8.137221,345.0985473,189.4550395,-35.34859848,19.34464073,24.57695961,0.001697121,-0.059341572,1.000862956,-0.041002121,-0.008681341,-0.037087724
14/04/2019 21:44,13.2440834,12.36458397,22.55971527,1018.737793,7.577669705,346.5945713,187.6029518,-35.65933609,19.31208992,24.67406082,0.125344545,0.032291412,1.2742908,0.038410358,0.024916247,-0.019678062
14/04/2019 21:44,13.47966003,12.41458321,24.87203598,1018.695068,353.6869078,350.0115237,188.986229,-35.55056381,20.09109116,23.92314911,0.001697121,-0.484140366,1.107114792,0.071397088,0.067371383,-0.059078872
14/04/2019 21:44,13.37093258,12.45000076,32.17724991,1019.336182,351.8674859,353.7465046,189.0547768,-36.47402954,22.04717445,22.9890728,-0.338905334,0.315144747,0.886325419,0.026193058,-0.085955791,-0.111002415
14/04/2019 21:44,13.29844761,12.78750038,58.67108917,1022.011719,343.0110365,348.6171491,190.3597391,-37.13414764,23.89935112,21.21165848,0.039033793,0.310774505,1.083232403,-0.012596887,-0.076487377,-0.009598786
14/04/2019 21:44,13.33469009,12.74374962,59.65971375,1025.191162,355.5519426,353.4731114,184.2342205,-38.32223129,25.23255348,20.41990852,0.19613874,0.089833252,1.319131017,0.028025651,0.103107005,-0.071907043
14/04/2019 21:44,13.13535595,12.6875,60.21042633,1025.626709,2.05901538,353.1493971,181.4827198,-39.72887421,24.91372299,20.56985092,0.207776144,-0.383307964,1.028400779,-0.032450005,-0.128105491,-0.038614884
14/04/2019 21:44,13.08099174,12.70208359,65.42227173,1025.445557,13.17578325,353.8551631,179.498232,-39.65471268,23.31621552,17.46526527,0.155407846,-0.261971325,1.094929934,0.032301709,-0.022425808,-0.063049495
14/04/2019 21:44,13.06287003,12.57500076,59.91516876,1025.066162,359.0538349,352.4377443,177.0901805,-41.22806931,22.73465157,18.35430717,-0.020981029,0.057784636,0.875846446,-0.027563084,-0.143071696,-0.067325555
14/04/2019 21:44,12.97226429,12.55624962,60.99668121,1024.609375,348.3881858,345.5914257,175.5595897,-43.59807587,22.52503777,20.34561729,-0.26485467,-0.048727628,0.758628249,-0.070934519,0.331265152,-0.004406432
14/04/2019 21:44,13.06287003,12.17708397,43.08862305,1024.211426,1.999594442,351.6926031,170.3192091,-44.52092743,23.22992325,22.19018555,-0.029373443,-0.413461179,0.831493676,0.091861069,0.114713438,-0.051443055
14/04/2019 21:44,13.04474926,12.22083282,44.0473938,1020.111816,18.11424566,345.6564371,164.8881978,-43.7463913,23.60993576,23.67949295,-0.136500105,-0.538898647,1.129778624,-0.091093071,-0.019371483,-0.052970216
14/04/2019 21:44,13.09911346,12.1875,43.6990509,1019.823975,13.38088102,347.9533503,163.7959686,-44.03594589,23.35005379,24.09361458,0.054550331,-0.204559565,1.145375133,0.006034503,0.002925099,-0.080764584
14/04/2019 21:44,13.13535595,12.18333244,44.36587524,1019.528076,358.5045331,344.2979825,164.9972076,-45.42615891,22.89825821,24.79495049,-0.111816548,-0.135568947,1.216290951,-0.07215625,-0.070073292,-0.07954286
